thisN,thisTrialN,thisRepN,key_resp.keys,key_resp.corr,key_resp.rt,key_resp.duration,tilt,trials.thisRepN,trials.thisTrialN,trials.thisN,trials.thisIndex,thisRow.t,notes,welcome.started,text.started,key_resp_2.started,welcome.stopped,key_resp_2.keys,key_resp_2.rt,key_resp_2.duration,trial.started,fixation.started,key_resp.started,fixation.stopped,trial.stopped,trials.key_resp.keys,trials.key_resp.corr,trials.key_resp.rt,trials.key_resp.duration,trials.tilt,participant,session,date,expName,psychopyVersion,frameRate,expStart,
,,,,,,,,,,,,,,0.002928900001279544,0.00904120000632247,0.00904120000632247,3.2620542000004207,space,3.14187249999668,None,,,,,,,,,,,0001,001,2025-09-08_13h25.54.696,untitled,2024.2.4,60.052125244881346,2025-09-08 13h26.10.770918 +0530,
0,0,0,down,1,2.2595169999985956,None,-4,0,0,0,0,3.2696610000057262,,,,,,,,,3.2644366000022274,3.2696610000057262,3.2696610000057262,4.31983400000172,5.542167200001131,down,1,2.2595169999985956,None,-4,0001,001,2025-09-08_13h25.54.696,untitled,2024.2.4,60.052125244881346,2025-09-08 13h26.10.770918 +0530,
1,0,1,down,1,1.764901499998814,None,4,1,0,1,0,5.557287900002848,,,,,,,,,5.542735400005768,5.557287900002848,5.557287900002848,6.556511500006309,7.325238400000671,down,1,1.764901499998814,None,4,0001,001,2025-09-08_13h25.54.696,untitled,2024.2.4,60.052125244881346,2025-09-08 13h26.10.770918 +0530,
2,0,2,down,1,1.485625200002687,None,4,2,0,2,0,7.339154100001906,,,,,,,,,7.325857000003452,7.339154100001906,7.339154100001906,8.338613800005987,8.839019600003667,down,1,1.485625200002687,None,4,0001,001,2025-09-08_13h25.54.696,untitled,2024.2.4,60.052125244881346,2025-09-08 13h26.10.770918 +0530,
3,0,3,up,1,1.6590355000007548,None,0,3,0,3,0,8.854518600004667,,,,,,,,,8.839345400003367,8.854518600004667,8.854518600004667,9.853817200004414,10.521349500006181,up,1,1.6590355000007548,None,0,0001,001,2025-09-08_13h25.54.696,untitled,2024.2.4,60.052125244881346,2025-09-08 13h26.10.770918 +0530,
4,0,4,up,1,1.5648078999947757,None,0,4,0,4,0,10.536561000000802,,,,,,,,,10.521767000005639,10.536561000000802,10.536561000000802,11.53611240000464,12.103538000003027,up,1,1.5648078999947757,None,0,0001,001,2025-09-08_13h25.54.696,untitled,2024.2.4,60.052125244881346,2025-09-08 13h26.10.770918 +0530,
5,0,5,down,1,3.465732599994226,None,3,5,0,5,0,12.11882140000671,,,,,,,,,12.103887600002054,12.11882140000671,12.11882140000671,13.118045500006701,15.599719100006041,down,1,3.465732599994226,None,3,0001,001,2025-09-08_13h25.54.696,untitled,2024.2.4,60.052125244881346,2025-09-08 13h26.10.770918 +0530,
6,0,6,up,0,1.6496985999983735,None,-5,6,0,6,0,15.615159500004665,,,,,,,,,15.600073500005237,15.615159500004665,15.615159500004665,16.614409200003138,17.281781800003955,up,0,1.6496985999983735,None,-5,0001,001,2025-09-08_13h25.54.696,untitled,2024.2.4,60.052125244881346,2025-09-08 13h26.10.770918 +0530,
7,0,7,down,1,0.02313480000157142,None,4,7,0,7,0,17.29721140000038,,,,,,,,,17.282086200000776,17.29721140000038,17.29721140000038,,17.331831700001203,down,1,0.02313480000157142,None,4,0001,001,2025-09-08_13h25.54.696,untitled,2024.2.4,60.052125244881346,2025-09-08 13h26.10.770918 +0530,
8,0,8,down,1,2.092726099996071,None,-3,8,0,8,0,17.347162000005483,,,,,,,,,17.33215829999972,17.347162000005483,17.347162000005483,18.346300400000473,19.446626200005994,down,1,2.092726099996071,None,-3,0001,001,2025-09-08_13h25.54.696,untitled,2024.2.4,60.052125244881346,2025-09-08 13h26.10.770918 +0530,
9,0,9,down,1,1.577924700002768,None,4,9,0,9,0,19.46210570000403,,,,,,,,,19.446962600006373,19.46210570000403,19.46210570000403,20.46133450000343,21.045123200005037,down,1,1.577924700002768,None,4,0001,001,2025-09-08_13h25.54.696,untitled,2024.2.4,60.052125244881346,2025-09-08 13h26.10.770918 +0530,
10,0,10,down,1,1.4831450000056066,None,4,10,0,10,0,21.060372700005246,,,,,,,,,21.04562110000552,21.060372700005246,21.060372700005246,22.059579700005997,22.560359200004314,down,1,1.4831450000056066,None,4,0001,001,2025-09-08_13h25.54.696,untitled,2024.2.4,60.052125244881346,2025-09-08 13h26.10.770918 +0530,
11,0,11,up,1,1.5687808000002406,None,0,11,0,11,0,22.57576230000268,,,,,,,,,22.56065070000477,22.57576230000268,22.57576230000268,23.57497130000411,24.16096220000327,up,1,1.5687808000002406,None,0,0001,001,2025-09-08_13h25.54.696,untitled,2024.2.4,60.052125244881346,2025-09-08 13h26.10.770918 +0530,
12,0,12,up,1,1.5366089999952237,None,0,12,0,12,0,24.174619400000665,,,,,,,,,24.1614819000024,24.174619400000665,24.174619400000665,25.174028800000087,25.72405450000224,up,1,1.5366089999952237,None,0,0001,001,2025-09-08_13h25.54.696,untitled,2024.2.4,60.052125244881346,2025-09-08 13h26.10.770918 +0530,
13,0,13,up,1,1.476040000001376,None,0,13,0,13,0,25.73965770000359,,,,,,,,,25.72448340000119,25.73965770000359,25.73965770000359,26.73886350000248,27.22304940000322,up,1,1.476040000001376,None,0,0001,001,2025-09-08_13h25.54.696,untitled,2024.2.4,60.052125244881346,2025-09-08 13h26.10.770918 +0530,
14,0,14,up,1,1.5443980999989435,None,0,14,0,14,0,27.238548600005743,,,,,,,,,27.223370700005034,27.238548600005743,27.238548600005743,28.23781350000354,28.788395800002036,up,1,1.5443980999989435,None,0,0001,001,2025-09-08_13h25.54.696,untitled,2024.2.4,60.052125244881346,2025-09-08 13h26.10.770918 +0530,
15,0,15,up,1,1.4225426999983029,None,0,15,0,15,0,28.803699300005974,,,,,,,,,28.788867400005984,28.803699300005974,28.803699300005974,29.80304480000632,30.237942400002794,up,1,1.4225426999983029,None,0,0001,001,2025-09-08_13h25.54.696,untitled,2024.2.4,60.052125244881346,2025-09-08 13h26.10.770918 +0530,
16,0,16,up,1,1.3751260999997612,None,0,16,0,16,0,30.252743000004557,,,,,,,,,30.238486300004297,30.252743000004557,30.252743000004557,31.268550799999502,31.635625800001435,up,1,1.3751260999997612,None,0,0001,001,2025-09-08_13h25.54.696,untitled,2024.2.4,60.052125244881346,2025-09-08 13h26.10.770918 +0530,
17,0,17,down,1,1.5589905000015278,None,3,17,0,17,0,31.65118710000388,,,,,,,,,31.63612060000014,31.65118710000388,31.65118710000388,32.650410200003535,33.217618100003165,down,1,1.5589905000015278,None,3,0001,001,2025-09-08_13h25.54.696,untitled,2024.2.4,60.052125244881346,2025-09-08 13h26.10.770918 +0530,
18,0,18,up,1,1.5500144999969052,None,0,18,0,18,0,33.23325210000621,,,,,,,,,33.21792000000278,33.23325210000621,33.23325210000621,34.232589300001564,34.799701300005836,up,1,1.5500144999969052,None,0,0001,001,2025-09-08_13h25.54.696,untitled,2024.2.4,60.052125244881346,2025-09-08 13h26.10.770918 +0530,
19,0,19,up,1,1.4581966000041575,None,0,19,0,19,0,34.81518870000582,,,,,,,,,34.800047300006554,34.81518870000582,34.81518870000582,35.81425540000055,36.28211320000264,up,1,1.4581966000041575,None,0,0001,001,2025-09-08_13h25.54.696,untitled,2024.2.4,60.052125244881346,2025-09-08 13h26.10.770918 +0530,
20,0,20,up,0,1.4250501999995322,None,3,20,0,20,0,36.29721370000334,,,,,,,,,36.28245500000048,36.29721370000334,36.29721370000334,37.29636410000239,37.730453600001056,up,0,1.4250501999995322,None,3,0001,001,2025-09-08_13h25.54.696,untitled,2024.2.4,60.052125244881346,2025-09-08 13h26.10.770918 +0530,
21,0,21,up,1,1.563964599998144,None,0,21,0,21,0,37.745858000002045,,,,,,,,,37.730864800003474,37.745858000002045,37.745858000002045,38.74516810000205,39.31259520000458,up,1,1.563964599998144,None,0,0001,001,2025-09-08_13h25.54.696,untitled,2024.2.4,60.052125244881346,2025-09-08 13h26.10.770918 +0530,
22,0,22,up,1,1.4864146000036271,None,0,22,0,22,0,39.327901100004965,,,,,,,,,39.312881700003345,39.327901100004965,39.327901100004965,40.32719970000471,40.82802050000464,up,1,1.4864146000036271,None,0,0001,001,2025-09-08_13h25.54.696,untitled,2024.2.4,60.052125244881346,2025-09-08 13h26.10.770918 +0530,
23,0,23,up,1,1.4308840999947279,None,0,23,0,23,0,40.843450800006394,,,,,,,,,40.82845680000173,40.843450800006394,40.843450800006394,41.8590675000014,42.27735020000546,up,1,1.4308840999947279,None,0,0001,001,2025-09-08_13h25.54.696,untitled,2024.2.4,60.052125244881346,2025-09-08 13h26.10.770918 +0530,
24,0,24,up,1,1.4661003000001074,None,0,24,0,24,0,42.29203050000069,,,,,,,,,42.277869700003066,42.29203050000069,42.29203050000069,43.29123320000508,43.77505250000104,up,1,1.4661003000001074,None,0,0001,001,2025-09-08_13h25.54.696,untitled,2024.2.4,60.052125244881346,2025-09-08 13h26.10.770918 +0530,
25,0,25,up,1,1.5746766999945976,None,0,25,0,25,0,43.79059480000433,,,,,,,,,43.77549640000507,43.79059480000433,43.79059480000433,44.78998030000366,45.37447650000104,up,1,1.5746766999945976,None,0,0001,001,2025-09-08_13h25.54.696,untitled,2024.2.4,60.052125244881346,2025-09-08 13h26.10.770918 +0530,
26,0,26,up,1,1.4434221999981673,None,0,26,0,26,0,45.38932040000509,,,,,,,,,45.37476710000192,45.38932040000509,45.38932040000509,46.405002100000274,46.839593100005004,up,1,1.4434221999981673,None,0,0001,001,2025-09-08_13h25.54.696,untitled,2024.2.4,60.052125244881346,2025-09-08 13h26.10.770918 +0530,
27,0,27,up,1,1.3573691999990842,None,0,27,0,27,0,46.8547647000014,,,,,,,,,46.83995130000403,46.8547647000014,46.8547647000014,47.85384090000298,48.22140230000514,up,1,1.3573691999990842,None,0,0001,001,2025-09-08_13h25.54.696,untitled,2024.2.4,60.052125244881346,2025-09-08 13h26.10.770918 +0530,
28,0,28,up,1,1.4398715000061202,None,0,28,0,28,0,48.236717300002056,,,,,,,,,48.22168530000636,48.236717300002056,48.236717300002056,49.23597790000349,49.68701169999986,up,1,1.4398715000061202,None,0,0001,001,2025-09-08_13h25.54.696,untitled,2024.2.4,60.052125244881346,2025-09-08 13h26.10.770918 +0530,
29,0,29,up,1,1.4971627999984776,None,0,29,0,29,0,49.70221490000404,,,,,,,,,49.6874156000049,49.70221490000404,49.70221490000404,50.70148170000175,51.20279930000106,up,1,1.4971627999984776,None,0,0001,001,2025-09-08_13h25.54.696,untitled,2024.2.4,60.052125244881346,2025-09-08 13h26.10.770918 +0530,
30,0,30,down,1,1.4484086000011303,None,2,30,0,30,0,51.21790730000066,,,,,,,,,51.203178300005675,51.21790730000066,51.21790730000066,52.21727010000177,52.668775600002846,down,1,1.4484086000011303,None,2,0001,001,2025-09-08_13h25.54.696,untitled,2024.2.4,60.052125244881346,2025-09-08 13h26.10.770918 +0530,
31,0,31,up,0,1.3765925999978208,None,-4,31,0,31,0,52.683409900004335,,,,,,,,,52.66925020000053,52.683409900004335,52.683409900004335,53.68268030000036,54.06719150000572,up,0,1.3765925999978208,None,-4,0001,001,2025-09-08_13h25.54.696,untitled,2024.2.4,60.052125244881346,2025-09-08 13h26.10.770918 +0530,
32,0,32,up,1,1.9380203999971855,None,0,32,0,32,0,54.08236910000414,,,,,,,,,54.067569800005,54.08236910000414,54.08236910000414,55.08153820000007,56.031652100005886,up,1,1.9380203999971855,None,0,0001,001,2025-09-08_13h25.54.696,untitled,2024.2.4,60.052125244881346,2025-09-08 13h26.10.770918 +0530,
33,0,33,down,1,1.5997435999961453,None,-4,33,0,33,0,56.04727339999954,,,,,,,,,56.0319604000033,56.04727339999954,56.04727339999954,57.06253810000635,57.66324380000151,down,1,1.5997435999961453,None,-4,0001,001,2025-09-08_13h25.54.696,untitled,2024.2.4,60.052125244881346,2025-09-08 13h26.10.770918 +0530,
34,0,34,up,1,1.7505162000015844,None,0,34,0,34,0,57.678481500006455,,,,,,,,,57.66360220000206,57.678481500006455,57.678481500006455,58.67785540000477,59.4449953000003,up,1,1.7505162000015844,None,0,0001,001,2025-09-08_13h25.54.696,untitled,2024.2.4,60.052125244881346,2025-09-08 13h26.10.770918 +0530,
35,0,35,up,1,1.4895741999935126,None,0,35,0,35,0,59.460324800005765,,,,,,,,,59.44531160000042,59.460324800005765,59.460324800005765,60.459666599999764,60.960642000005464,up,1,1.4895741999935126,None,0,0001,001,2025-09-08_13h25.54.696,untitled,2024.2.4,60.052125244881346,2025-09-08 13h26.10.770918 +0530,
36,0,36,down,1,1.608896799996728,None,-3,36,0,36,0,60.9760574000029,,,,,,,,,60.96101660000568,60.9760574000029,60.9760574000029,61.9752593000012,62.59300269999949,down,1,1.608896799996728,None,-3,0001,001,2025-09-08_13h25.54.696,untitled,2024.2.4,60.052125244881346,2025-09-08 13h26.10.770918 +0530,
37,0,37,up,1,1.41440230000444,None,0,37,0,37,0,62.60833940000157,,,,,,,,,62.59338660000503,62.60833940000157,62.60833940000157,63.60745730000053,64.02493660000619,up,1,1.41440230000444,None,0,0001,001,2025-09-08_13h25.54.696,untitled,2024.2.4,60.052125244881346,2025-09-08 13h26.10.770918 +0530,
38,0,38,down,1,1.576512300001923,None,-4,38,0,38,0,64.0404309000005,,,,,,,,,64.02533280000353,64.0404309000005,64.0404309000005,65.03963570000633,65.6239299000008,down,1,1.576512300001923,None,-4,0001,001,2025-09-08_13h25.54.696,untitled,2024.2.4,60.052125244881346,2025-09-08 13h26.10.770918 +0530,
39,0,39,up,1,1.7007622999954037,None,0,39,0,39,0,65.63905879999948,,,,,,,,,65.6243750000067,65.63905879999948,65.63905879999948,66.65482380000321,67.3557110000038,up,1,1.7007622999954037,None,0,0001,001,2025-09-08_13h25.54.696,untitled,2024.2.4,60.052125244881346,2025-09-08 13h26.10.770918 +0530,
40,0,40,down,1,1.5464517000000342,None,-4,40,0,40,0,67.37077390000195,,,,,,,,,67.35617930000444,67.37077390000195,67.37077390000195,68.36992530000134,68.92080440000427,down,1,1.5464517000000342,None,-4,0001,001,2025-09-08_13h25.54.696,untitled,2024.2.4,60.052125244881346,2025-09-08 13h26.10.770918 +0530,
41,0,41,up,1,1.5830855000021984,None,0,41,0,41,0,68.93607630000042,,,,,,,,,68.92116970000643,68.93607630000042,68.93607630000042,69.9353906000033,70.53579870000249,up,1,1.5830855000021984,None,0,0001,001,2025-09-08_13h25.54.696,untitled,2024.2.4,60.052125244881346,2025-09-08 13h26.10.770918 +0530,
42,0,42,down,1,1.4461681000029785,None,1,42,0,42,0,70.55131690000417,,,,,,,,,70.53613600000244,70.55131690000417,70.55131690000417,71.55049370000052,72.00144460000593,down,1,1.4461681000029785,None,1,0001,001,2025-09-08_13h25.54.696,untitled,2024.2.4,60.052125244881346,2025-09-08 13h26.10.770918 +0530,
43,0,43,down,1,1.5144144000005326,None,3,43,0,43,0,72.0166251000046,,,,,,,,,72.00186250000115,72.0166251000046,72.0166251000046,73.01608570000099,73.53360910000629,down,1,1.5144144000005326,None,3,0001,001,2025-09-08_13h25.54.696,untitled,2024.2.4,60.052125244881346,2025-09-08 13h26.10.770918 +0530,
44,0,44,down,1,1.5822399000026053,None,1,44,0,44,0,73.54863060000207,,,,,,,,,73.53404550000414,73.54863060000207,73.54863060000207,74.54802980000386,75.13278920000448,down,1,1.5822399000026053,None,1,0001,001,2025-09-08_13h25.54.696,untitled,2024.2.4,60.052125244881346,2025-09-08 13h26.10.770918 +0530,
45,0,45,down,1,1.4248479000016232,None,1,45,0,45,0,75.14736220000486,,,,,,,,,75.13331140000082,75.14736220000486,75.14736220000486,76.14662189999945,76.58064900000318,down,1,1.4248479000016232,None,1,0001,001,2025-09-08_13h25.54.696,untitled,2024.2.4,60.052125244881346,2025-09-08 13h26.10.770918 +0530,
46,0,46,down,1,1.5667554999963613,None,1,46,0,46,0,76.5961255000002,,,,,,,,,76.58102070000314,76.5961255000002,76.5961255000002,77.59537300000375,78.17934130000504,down,1,1.5667554999963613,None,1,0001,001,2025-09-08_13h25.54.696,untitled,2024.2.4,60.052125244881346,2025-09-08 13h26.10.770918 +0530,
47,0,47,down,1,1.4199727999948664,None,4,47,0,47,0,78.1946120000066,,,,,,,,,78.17974760000652,78.1946120000066,78.1946120000066,79.1941141999996,79.62789820000035,down,1,1.4199727999948664,None,4,0001,001,2025-09-08_13h25.54.696,untitled,2024.2.4,60.052125244881346,2025-09-08 13h26.10.770918 +0530,
48,0,48,up,0,1.5122769000008702,None,-2,48,0,48,0,79.64347760000237,,,,,,,,,79.62827649999963,79.64347760000237,79.64347760000237,80.64270060000126,81.16016740000487,up,0,1.5122769000008702,None,-2,0001,001,2025-09-08_13h25.54.696,untitled,2024.2.4,60.052125244881346,2025-09-08 13h26.10.770918 +0530,
49,0,49,up,1,1.4910990999997011,None,0,49,0,49,0,81.1755145000061,,,,,,,,,81.160526700005,81.1755145000061,81.1755145000061,82.1745485000065,82.67520800000057,up,1,1.4910990999997011,None,0,0001,001,2025-09-08_13h25.54.696,untitled,2024.2.4,60.052125244881346,2025-09-08 13h26.10.770918 +0530,
50,0,50,down,0,1.570086599997012,None,0,50,0,50,0,82.69064849999995,,,,,,,,,82.67553580000094,82.69064849999995,82.69064849999995,83.68989790000342,84.27392610000243,down,0,1.570086599997012,None,0,0001,001,2025-09-08_13h25.54.696,untitled,2024.2.4,60.052125244881346,2025-09-08 13h26.10.770918 +0530,
51,0,51,down,0,1.4615876999960165,None,0,51,0,51,0,84.28942120000283,,,,,,,,,84.27435240000341,84.28942120000283,84.28942120000283,85.28855230000045,85.75581100000272,down,0,1.4615876999960165,None,0,0001,001,2025-09-08_13h25.54.696,untitled,2024.2.4,60.052125244881346,2025-09-08 13h26.10.770918 +0530,
52,0,52,up,0,1.8812701999995625,None,-3,52,0,52,0,85.77137230000517,,,,,,,,,85.75613680000242,85.77137230000517,85.77137230000517,86.77057440000499,87.65454210000462,up,0,1.8812701999995625,None,-3,0001,001,2025-09-08_13h25.54.696,untitled,2024.2.4,60.052125244881346,2025-09-08 13h26.10.770918 +0530,
53,0,53,up,0,1.5588830999986385,None,1,53,0,53,0,87.66970950000541,,,,,,,,,87.65491870000551,87.66970950000541,87.66970950000541,88.66891160000523,89.2366467000029,up,0,1.5588830999986385,None,1,0001,001,2025-09-08_13h25.54.696,untitled,2024.2.4,60.052125244881346,2025-09-08 13h26.10.770918 +0530,
54,0,54,down,1,1.5261518000042997,None,4,54,0,54,0,89.25171090000367,,,,,,,,,89.23723330000212,89.25171090000367,89.25171090000367,90.25083760000416,90.78577240000595,down,1,1.5261518000042997,None,4,0001,001,2025-09-08_13h25.54.696,untitled,2024.2.4,60.052125244881346,2025-09-08 13h26.10.770918 +0530,
55,0,55,down,0,1.6751785000014934,None,0,55,0,55,0,90.80034739999974,,,,,,,,,90.78621030000068,90.80034739999974,90.80034739999974,91.79956660000607,92.48354930000642,down,0,1.6751785000014934,None,0,0001,001,2025-09-08_13h25.54.696,untitled,2024.2.4,60.052125244881346,2025-09-08 13h26.10.770918 +0530,
56,0,56,down,1,1.5623261000000639,None,-4,56,0,56,0,92.49876510000468,,,,,,,,,92.48412000000098,92.49876510000468,92.49876510000468,93.49821270000393,94.06555120000121,down,1,1.5623261000000639,None,-4,0001,001,2025-09-08_13h25.54.696,untitled,2024.2.4,60.052125244881346,2025-09-08 13h26.10.770918 +0530,
57,0,57,up,0,1.6726523999968776,None,1,57,0,57,0,94.08071030000428,,,,,,,,,94.06604750000406,94.08071030000428,94.08071030000428,95.08017749999999,95.76490200000262,up,0,1.6726523999968776,None,1,0001,001,2025-09-08_13h25.54.696,untitled,2024.2.4,60.052125244881346,2025-09-08 13h26.10.770918 +0530,
58,0,58,down,1,1.741109000002325,None,-4,58,0,58,0,95.7793701000046,,,,,,,,,95.76536310000665,95.7793701000046,95.7793701000046,96.79512740000064,97.52907270000287,down,1,1.741109000002325,None,-4,0001,001,2025-09-08_13h25.54.696,untitled,2024.2.4,60.052125244881346,2025-09-08 13h26.10.770918 +0530,
59,0,59,down,1,1.5000427999984822,None,1,59,0,59,0,97.54436330000317,,,,,,,,,97.52948800000013,97.54436330000317,97.54436330000317,98.54376780000166,99.06105820000084,down,1,1.5000427999984822,None,1,0001,001,2025-09-08_13h25.54.696,untitled,2024.2.4,60.052125244881346,2025-09-08 13h26.10.770918 +0530,
60,0,60,up,1,2.188407699999516,None,0,60,0,60,0,99.07643790000293,,,,,,,,,99.06136740000511,99.07643790000293,99.07643790000293,100.07563590000063,101.27591240000038,up,1,2.188407699999516,None,0,0001,001,2025-09-08_13h25.54.696,untitled,2024.2.4,60.052125244881346,2025-09-08 13h26.10.770918 +0530,
61,0,61,up,0,1.9081399999995483,None,1,61,0,61,0,101.29119410000567,,,,,,,,,101.27630390000559,101.29119410000567,101.29119410000567,102.29035700000532,103.20757280000544,up,0,1.9081399999995483,None,1,0001,001,2025-09-08_13h25.54.696,untitled,2024.2.4,60.052125244881346,2025-09-08 13h26.10.770918 +0530,
62,0,62,down,1,1.512145699998655,None,2,62,0,62,0,103.22274440000183,,,,,,,,,103.20796630000405,103.22274440000183,103.22274440000183,104.22199580000597,104.73934980000195,down,1,1.512145699998655,None,2,0001,001,2025-09-08_13h25.54.696,untitled,2024.2.4,60.052125244881346,2025-09-08 13h26.10.770918 +0530,
63,0,63,down,1,1.5493048999996972,None,4,63,0,63,0,104.75483080000413,,,,,,,,,104.73975600000267,104.75483080000413,104.75483080000413,105.75408760000573,106.32130310000503,down,1,1.5493048999996972,None,4,0001,001,2025-09-08_13h25.54.696,untitled,2024.2.4,60.052125244881346,2025-09-08 13h26.10.770918 +0530,
64,0,64,up,1,1.6082878000015626,None,0,64,0,64,0,106.33678599999985,,,,,,,,,106.32163650000439,106.33678599999985,106.33678599999985,107.33595280000009,107.9535318000053,up,1,1.6082878000015626,None,0,0001,001,2025-09-08_13h25.54.696,untitled,2024.2.4,60.052125244881346,2025-09-08 13h26.10.770918 +0530,
65,0,65,down,1,1.5366307000003872,None,-3,65,0,65,0,107.96872100000473,,,,,,,,,107.95393250000052,107.96872100000473,107.96872100000473,108.96810100000584,109.51882100000512,down,1,1.5366307000003872,None,-3,0001,001,2025-09-08_13h25.54.696,untitled,2024.2.4,60.052125244881346,2025-09-08 13h26.10.770918 +0530,
66,0,66,up,1,1.6568105999976979,None,0,66,0,66,0,109.53402190000634,,,,,,,,,109.51920560000144,109.53402190000634,109.53402190000634,110.5331376000031,111.2004298000029,up,1,1.6568105999976979,None,0,0001,001,2025-09-08_13h25.54.696,untitled,2024.2.4,60.052125244881346,2025-09-08 13h26.10.770918 +0530,
67,0,67,down,1,2.2711331000027712,None,-2,67,0,67,0,111.21594060000643,,,,,,,,,111.20078410000133,111.21594060000643,111.21594060000643,112.21496650000336,113.49845160000405,down,1,2.2711331000027712,None,-2,0001,001,2025-09-08_13h25.54.696,untitled,2024.2.4,60.052125244881346,2025-09-08 13h26.10.770918 +0530,
68,0,68,up,0,1.7737991000030888,None,1,68,0,68,0,113.51395270000648,,,,,,,,,113.49885000000359,113.51395270000648,113.51395270000648,114.51320710000437,115.29686760000186,up,0,1.7737991000030888,None,1,0001,001,2025-09-08_13h25.54.696,untitled,2024.2.4,60.052125244881346,2025-09-08 13h26.10.770918 +0530,
69,0,69,down,1,1.4203082999956678,None,-2,69,0,69,0,115.31226779999997,,,,,,,,,115.29722530000436,115.31226779999997,115.31226779999997,116.31144100000529,116.74586290000298,down,1,1.4203082999956678,None,-2,0001,001,2025-09-08_13h25.54.696,untitled,2024.2.4,60.052125244881346,2025-09-08 13h26.10.770918 +0530,
70,0,70,up,1,1.4884885999999824,None,0,70,0,70,0,116.76094970000122,,,,,,,,,116.74620069999946,116.76094970000122,116.76094970000122,117.76027550000435,118.2609020000018,up,1,1.4884885999999824,None,0,0001,001,2025-09-08_13h25.54.696,untitled,2024.2.4,60.052125244881346,2025-09-08 13h26.10.770918 +0530,
71,0,71,up,1,1.459609099998488,None,0,71,0,71,0,118.27638560000196,,,,,,,,,118.26121140000032,118.27638560000196,118.27638560000196,119.29232369999954,119.74307290000434,up,1,1.459609099998488,None,0,0001,001,2025-09-08_13h25.54.696,untitled,2024.2.4,60.052125244881346,2025-09-08 13h26.10.770918 +0530,
72,0,72,down,1,1.6238529000038397,None,-4,72,0,72,0,119.75836640000489,,,,,,,,,119.74345030000404,119.75836640000489,119.75836640000489,120.75771789999999,121.39159040000231,down,1,1.6238529000038397,None,-4,0001,001,2025-09-08_13h25.54.696,untitled,2024.2.4,60.052125244881346,2025-09-08 13h26.10.770918 +0530,
73,0,73,down,1,1.7166577000025427,None,-5,73,0,73,0,121.40709400000196,,,,,,,,,121.39199680000456,121.40709400000196,121.40709400000196,122.4061290000027,123.13992940000026,down,1,1.7166577000025427,None,-5,0001,001,2025-09-08_13h25.54.696,untitled,2024.2.4,60.052125244881346,2025-09-08 13h26.10.770918 +0530,
74,0,74,up,1,1.643279000003531,None,0,74,0,74,0,123.15535649999947,,,,,,,,,123.14038140000048,123.15535649999947,123.15535649999947,124.15461160000268,124.80553920000239,up,1,1.643279000003531,None,0,0001,001,2025-09-08_13h25.54.696,untitled,2024.2.4,60.052125244881346,2025-09-08 13h26.10.770918 +0530,
75,0,75,down,1,1.5056084000025294,None,3,75,0,75,0,124.82060340000317,,,,,,,,,124.80593000000226,124.82060340000317,124.82060340000317,125.8200233000025,126.33721910000168,down,1,1.5056084000025294,None,3,0001,001,2025-09-08_13h25.54.696,untitled,2024.2.4,60.052125244881346,2025-09-08 13h26.10.770918 +0530,
76,0,76,down,1,1.5167246999990311,None,2,76,0,76,0,126.35257710000587,,,,,,,,,126.33761860000232,126.35257710000587,126.35257710000587,127.35180180000316,127.88578270000289,down,1,1.5167246999990311,None,2,0001,001,2025-09-08_13h25.54.696,untitled,2024.2.4,60.052125244881346,2025-09-08 13h26.10.770918 +0530,
77,0,77,up,1,1.5225057999996352,None,0,77,0,77,0,127.90124510000169,,,,,,,,,127.8860724000042,127.90124510000169,127.90124510000169,128.90066150000348,129.43429180000385,up,1,1.5225057999996352,None,0,0001,001,2025-09-08_13h25.54.696,untitled,2024.2.4,60.052125244881346,2025-09-08 13h26.10.770918 +0530,
78,0,78,up,1,1.537803300001542,None,0,78,0,78,0,129.44982350000646,,,,,,,,,129.43456340000557,129.44982350000646,129.44982350000646,130.44910650000384,130.99966540000605,up,1,1.537803300001542,None,0,0001,001,2025-09-08_13h25.54.696,untitled,2024.2.4,60.052125244881346,2025-09-08 13h26.10.770918 +0530,
79,0,79,up,1,1.4801065000065137,None,0,79,0,79,0,131.01535270000022,,,,,,,,,131.00002650000533,131.01535270000022,131.01535270000022,132.0312097999995,132.4983546000003,up,1,1.4801065000065137,None,0,0001,001,2025-09-08_13h25.54.696,untitled,2024.2.4,60.052125244881346,2025-09-08 13h26.10.770918 +0530,
80,0,80,up,1,1.6886247000002186,None,0,80,0,80,0,132.51408710000396,,,,,,,,,132.49862890000077,132.51408710000396,132.51408710000396,133.52976979999949,134.21395210000628,up,1,1.6886247000002186,None,0,0001,001,2025-09-08_13h25.54.696,untitled,2024.2.4,60.052125244881346,2025-09-08 13h26.10.770918 +0530,
81,0,81,up,1,1.4977696999994805,None,0,81,0,81,0,134.2290506000063,,,,,,,,,134.2143378000037,134.2290506000063,134.2290506000063,135.22823500000231,135.72918340000615,up,1,1.4977696999994805,None,0,0001,001,2025-09-08_13h25.54.696,untitled,2024.2.4,60.052125244881346,2025-09-08 13h26.10.770918 +0530,
82,0,82,down,1,1.5232306999969296,None,2,82,0,82,0,135.74459360000037,,,,,,,,,135.72957600000518,135.74459360000037,135.74459360000037,136.76038100000005,137.27791860000434,down,1,1.5232306999969296,None,2,0001,001,2025-09-08_13h25.54.696,untitled,2024.2.4,60.052125244881346,2025-09-08 13h26.10.770918 +0530,
83,0,83,down,0,1.496969200001331,None,0,83,0,83,0,137.29294460000528,,,,,,,,,137.27832740000304,137.29294460000528,137.29294460000528,138.29219180000655,138.79303740000614,down,0,1.496969200001331,None,0,0001,001,2025-09-08_13h25.54.696,untitled,2024.2.4,60.052125244881346,2025-09-08 13h26.10.770918 +0530,
84,0,84,down,1,1.5965608999977121,None,4,84,0,84,0,138.80842200000188,,,,,,,,,138.7934957000034,138.80842200000188,138.80842200000188,139.80757260000246,140.40818790000048,down,1,1.5965608999977121,None,4,0001,001,2025-09-08_13h25.54.696,untitled,2024.2.4,60.052125244881346,2025-09-08 13h26.10.770918 +0530,
85,0,85,up,1,1.4367060999938985,None,0,85,0,85,0,140.42358620000596,,,,,,,,,140.40850800000044,140.42358620000596,140.42358620000596,141.42287110000325,141.87350490000244,up,1,1.4367060999938985,None,0,0001,001,2025-09-08_13h25.54.696,untitled,2024.2.4,60.052125244881346,2025-09-08 13h26.10.770918 +0530,
86,0,86,up,1,1.4311090999981388,None,0,86,0,86,0,141.88922620000085,,,,,,,,,141.87383740000223,141.88922620000085,141.88922620000085,142.90489490000618,143.3222595000043,up,1,1.4311090999981388,None,0,0001,001,2025-09-08_13h25.54.696,untitled,2024.2.4,60.052125244881346,2025-09-08 13h26.10.770918 +0530,
87,0,87,down,1,1.4791798000005656,None,4,87,0,87,0,143.33774500000436,,,,,,,,,143.322611100004,143.33774500000436,143.33774500000436,144.33711890000268,144.82117950000247,down,1,1.4791798000005656,None,4,0001,001,2025-09-08_13h25.54.696,untitled,2024.2.4,60.052125244881346,2025-09-08 13h26.10.770918 +0530,
88,0,88,down,1,1.4652519000010216,None,3,88,0,88,0,144.83651480000117,,,,,,,,,144.82160380000278,144.83651480000117,144.83651480000117,145.8357931000064,146.30343650000577,down,1,1.4652519000010216,None,3,0001,001,2025-09-08_13h25.54.696,untitled,2024.2.4,60.052125244881346,2025-09-08 13h26.10.770918 +0530,
89,0,89,up,0,1.7740080000003218,None,2,89,0,89,0,146.31855600000563,,,,,,,,,146.3039246000044,146.31855600000563,146.31855600000563,147.31794010000158,148.10142440000345,up,0,1.7740080000003218,None,2,0001,001,2025-09-08_13h25.54.696,untitled,2024.2.4,60.052125244881346,2025-09-08 13h26.10.770918 +0530,
90,0,90,up,1,1.6240019000033499,None,0,90,0,90,0,148.1170276000048,,,,,,,,,148.10175359999994,148.1170276000048,148.1170276000048,149.11610750000546,149.75063010000304,up,1,1.6240019000033499,None,0,0001,001,2025-09-08_13h25.54.696,untitled,2024.2.4,60.052125244881346,2025-09-08 13h26.10.770918 +0530,
91,0,91,up,0,1.61502940000355,None,-2,91,0,91,0,149.76553360000253,,,,,,,,,149.75102239999978,149.76553360000253,149.76553360000253,150.76468840000598,151.38218460000644,up,0,1.61502940000355,None,-2,0001,001,2025-09-08_13h25.54.696,untitled,2024.2.4,60.052125244881346,2025-09-08 13h26.10.770918 +0530,
92,0,92,down,0,1.6438748000000487,None,0,92,0,92,0,151.39746350000496,,,,,,,,,151.38250490000064,151.39746350000496,151.39746350000496,152.39665190000233,153.04739230000268,down,0,1.6438748000000487,None,0,0001,001,2025-09-08_13h25.54.696,untitled,2024.2.4,60.052125244881346,2025-09-08 13h26.10.770918 +0530,
93,0,93,up,1,1.470808500002022,None,0,93,0,93,0,153.06252060000406,,,,,,,,,153.04774240000552,153.06252060000406,153.06252060000406,154.06184230000508,154.54614550000406,up,1,1.470808500002022,None,0,0001,001,2025-09-08_13h25.54.696,untitled,2024.2.4,60.052125244881346,2025-09-08 13h26.10.770918 +0530,
94,0,94,up,1,1.3783872999993037,None,0,94,0,94,0,154.5613016999996,,,,,,,,,154.5465786000059,154.5613016999996,154.5613016999996,155.5606289999996,155.94482780000544,up,1,1.3783872999993037,None,0,0001,001,2025-09-08_13h25.54.696,untitled,2024.2.4,60.052125244881346,2025-09-08 13h26.10.770918 +0530,
95,0,95,down,1,1.521020200001658,None,1,95,0,95,0,155.96006810000108,,,,,,,,,155.94517980000091,155.96006810000108,155.96006810000108,156.9759097999995,157.49310840000544,down,1,1.521020200001658,None,1,0001,001,2025-09-08_13h25.54.696,untitled,2024.2.4,60.052125244881346,2025-09-08 13h26.10.770918 +0530,
96,0,96,down,1,1.4917230999999447,None,2,96,0,96,0,157.50886110000283,,,,,,,,,157.49341450000065,157.50886110000283,157.50886110000283,158.52476350000506,159.0092242000028,down,1,1.4917230999999447,None,2,0001,001,2025-09-08_13h25.54.696,untitled,2024.2.4,60.052125244881346,2025-09-08 13h26.10.770918 +0530,
97,0,97,up,1,1.691143000003649,None,0,97,0,97,0,159.02409500000067,,,,,,,,,159.00964540000132,159.02409500000067,159.02409500000067,160.02339520000533,160.72387610000442,up,1,1.691143000003649,None,0,0001,001,2025-09-08_13h25.54.696,untitled,2024.2.4,60.052125244881346,2025-09-08 13h26.10.770918 +0530,
98,0,98,up,1,1.7161965999985114,None,0,98,0,98,0,160.73921770000015,,,,,,,,,160.72423280000658,160.73921770000015,160.73921770000015,161.73841920000268,162.47225930000423,up,1,1.7161965999985114,None,0,0001,001,2025-09-08_13h25.54.696,untitled,2024.2.4,60.052125244881346,2025-09-08 13h26.10.770918 +0530,
99,0,99,up,1,1.5335011999995913,None,0,99,0,99,0,162.48782320000464,,,,,,,,,162.47258259999944,162.48782320000464,162.48782320000464,163.48698030000378,164.03796620000503,up,1,1.5335011999995913,None,0,0001,001,2025-09-08_13h25.54.696,untitled,2024.2.4,60.052125244881346,2025-09-08 13h26.10.770918 +0530,
