word,colour,stim_condition,correct_res,thisN,thisTrialN,thisRepN,key_resp.keys,key_resp.corr,key_resp.rt,key_resp.duration,trials.thisRepN,trials.thisTrialN,trials.thisN,trials.thisIndex,thisRow.t,notes,Instructions.started,text_2.started,key_resp_2.started,Instructions.stopped,key_resp_2.keys,key_resp_2.rt,key_resp_2.duration,trial.started,fixation.started,fixation.stopped,text.started,key_resp.started,trial.stopped,trials.key_resp.keys,trials.key_resp.corr,trials.key_resp.rt,trials.key_resp.duration,text.stopped,Thanks.started,text_3.started,text_3.stopped,Thanks.stopped,participant,session,date,expName,psychopyVersion,frameRate,expStart,
,,,,,,,,,,,,,,,,,0.0033395998179912567,0.01276679988950491,0.01276679988950491,2.7207875000312924,space,2.6904664002358913,None,,,,,,,,,,,,,,,,0001,001,2025-08-24_23h26.43.535,Stroop Task Data,2024.2.4,60.0255229069258,2025-08-24 23h27.03.693129 +0530,
BLUE,red,I,r,0,0,0,b,0,1.604677100200206,None,0,0,0,2,2.754433299880475,,,,,,,,,2.7483708998188376,2.754433299880475,3.229132399894297,3.229132399894297,3.229132399894297,4.846133400220424,b,0,1.604677100200206,None,,,,,,0001,001,2025-08-24_23h26.43.535,Stroop Task Data,2024.2.4,60.0255229069258,2025-08-24 23h27.03.693129 +0530,
RED,blue,I,b,1,1,0,b,1,1.5371667998842895,None,0,1,1,1,4.861102200113237,,,,,,,,,4.852184600196779,4.861102200113237,5.36071169981733,5.36071169981733,5.36071169981733,6.911087399814278,b,1,1.5371667998842895,None,,,,,,0001,001,2025-08-24_23h26.43.535,Stroop Task Data,2024.2.4,60.0255229069258,2025-08-24 23h27.03.693129 +0530,
BLUE,blue,C,b,2,2,0,b,1,0.8361650998704135,None,0,2,2,3,6.9261886002495885,,,,,,,,,6.916030299849808,6.9261886002495885,7.425518299918622,7.425518299918622,7.425518299918622,8.27637130022049,b,1,0.8361650998704135,None,,,,,,0001,001,2025-08-24_23h26.43.535,Stroop Task Data,2024.2.4,60.0255229069258,2025-08-24 23h27.03.693129 +0530,
RED,red,C,r,3,3,0,r,1,0.8207129999063909,None,0,3,3,0,8.29140490014106,,,,,,,,,8.282437500078231,8.29140490014106,8.791136899963021,8.791136899963021,8.791136899963021,9.624906499870121,r,1,0.8207129999063909,None,,,,,,0001,001,2025-08-24_23h26.43.535,Stroop Task Data,2024.2.4,60.0255229069258,2025-08-24 23h27.03.693129 +0530,
BLUE,red,I,r,4,0,1,r,1,1.8013913999311626,None,1,0,4,2,9.640254400204867,,,,,,,,,9.630155799910426,9.640254400204867,10.139864900149405,10.139864900149405,10.139864900149405,11.956615400034934,r,1,1.8013913999311626,None,,,,,,0001,001,2025-08-24_23h26.43.535,Stroop Task Data,2024.2.4,60.0255229069258,2025-08-24 23h27.03.693129 +0530,
RED,red,C,r,5,1,1,r,1,0.9612696999683976,None,1,1,5,0,11.971773399971426,,,,,,,,,11.962625400163233,11.971773399971426,12.471354600042105,12.471354600042105,12.471354600042105,13.438210600055754,r,1,0.9612696999683976,None,,,,,,0001,001,2025-08-24_23h26.43.535,Stroop Task Data,2024.2.4,60.0255229069258,2025-08-24 23h27.03.693129 +0530,
BLUE,blue,C,b,6,2,1,b,1,0.7362500000745058,None,1,2,6,3,13.45349740004167,,,,,,,,,13.443259399849921,13.45349740004167,13.95312360022217,13.95312360022217,13.95312360022217,14.703791500069201,b,1,0.7362500000745058,None,,,,,,0001,001,2025-08-24_23h26.43.535,Stroop Task Data,2024.2.4,60.0255229069258,2025-08-24 23h27.03.693129 +0530,
RED,blue,I,b,7,3,1,b,1,0.6292256000451744,None,1,3,7,1,14.719161500222981,,,,,,,,,14.709580200258642,14.719161500222981,15.21877249982208,15.21877249982208,15.21877249982208,15.852929499931633,b,1,0.6292256000451744,None,,,,,,0001,001,2025-08-24_23h26.43.535,Stroop Task Data,2024.2.4,60.0255229069258,2025-08-24 23h27.03.693129 +0530,
BLUE,red,I,r,8,0,2,r,1,0.7782510998658836,None,2,0,8,2,15.868364400230348,,,,,,,,,15.857937400229275,15.868364400230348,16.367866300046444,16.367866300046444,16.367866300046444,17.151857200078666,r,1,0.7782510998658836,None,,,,,,0001,001,2025-08-24_23h26.43.535,Stroop Task Data,2024.2.4,60.0255229069258,2025-08-24 23h27.03.693129 +0530,
RED,red,C,r,9,1,2,r,1,0.6207679002545774,None,2,1,9,0,17.167259000241756,,,,,,,,,17.15732439979911,17.167259000241756,17.66657319990918,17.66657319990918,17.66657319990918,18.300641300156713,r,1,0.6207679002545774,None,,,,,,0001,001,2025-08-24_23h26.43.535,Stroop Task Data,2024.2.4,60.0255229069258,2025-08-24 23h27.03.693129 +0530,
BLUE,blue,C,b,10,2,2,b,1,0.6763360998593271,None,2,2,10,3,18.315973999910057,,,,,,,,,18.30566840013489,18.315973999910057,18.815543400123715,18.815543400123715,18.815543400123715,19.499943600036204,b,1,0.6763360998593271,None,,,,,,0001,001,2025-08-24_23h26.43.535,Stroop Task Data,2024.2.4,60.0255229069258,2025-08-24 23h27.03.693129 +0530,
RED,blue,I,b,11,3,2,b,1,1.1313387998379767,None,2,3,11,1,19.514945699833333,,,,,,,,,19.505298200063407,19.514945699833333,20.0145306000486,20.0145306000486,20.0145306000486,21.14841719996184,b,1,1.1313387998379767,None,,,,,,0001,001,2025-08-24_23h26.43.535,Stroop Task Data,2024.2.4,60.0255229069258,2025-08-24 23h27.03.693129 +0530,
RED,red,C,r,12,0,3,r,1,0.7118561002425849,None,3,0,12,0,21.163608400151134,,,,,,,,,21.14933460019529,21.163608400151134,21.663230299949646,21.663230299949646,21.663230299949646,22.380464300047606,r,1,0.7118561002425849,None,,,,,,0001,001,2025-08-24_23h26.43.535,Stroop Task Data,2024.2.4,60.0255229069258,2025-08-24 23h27.03.693129 +0530,
BLUE,blue,C,b,13,1,3,b,1,0.7876610001549125,None,3,1,13,3,22.395839900244027,,,,,,,,,22.386071600019932,22.395839900244027,22.895355599932373,22.895355599932373,22.895355599932373,23.696135600097477,b,1,0.7876610001549125,None,,,,,,0001,001,2025-08-24_23h26.43.535,Stroop Task Data,2024.2.4,60.0255229069258,2025-08-24 23h27.03.693129 +0530,
RED,blue,I,b,14,2,3,b,1,0.6647878000512719,None,3,2,14,1,23.7113119000569,,,,,,,,,23.701654000207782,23.7113119000569,24.21084879990667,24.21084879990667,24.21084879990667,24.87855299981311,b,1,0.6647878000512719,None,,,,,,0001,001,2025-08-24_23h26.43.535,Stroop Task Data,2024.2.4,60.0255229069258,2025-08-24 23h27.03.693129 +0530,
BLUE,red,I,r,15,3,3,r,1,0.6298369001597166,None,3,3,15,2,24.893617699854076,,,,,,,,,24.883914900012314,24.893617699854076,25.39320809999481,25.39320809999481,25.39320809999481,26.027721100021154,r,1,0.6298369001597166,None,,,,,,0001,001,2025-08-24_23h26.43.535,Stroop Task Data,2024.2.4,60.0255229069258,2025-08-24 23h27.03.693129 +0530,
BLUE,blue,C,b,16,0,4,b,1,0.679723700042814,None,4,0,16,3,26.0426962999627,,,,,,,,,26.028683099895716,26.0426962999627,26.542272000107914,26.542272000107914,26.542272000107914,27.22658160002902,b,1,0.679723700042814,None,,,,,,0001,001,2025-08-24_23h26.43.535,Stroop Task Data,2024.2.4,60.0255229069258,2025-08-24 23h27.03.693129 +0530,
BLUE,red,I,r,17,1,4,r,1,0.54856689972803,None,4,1,17,2,27.241768199950457,,,,,,,,,27.227601599879563,27.241768199950457,27.741245199926198,27.741245199926198,27.741245199926198,28.292286899872124,r,1,0.54856689972803,None,,,,,,0001,001,2025-08-24_23h26.43.535,Stroop Task Data,2024.2.4,60.0255229069258,2025-08-24 23h27.03.693129 +0530,
RED,red,C,r,18,2,4,r,1,0.6063870997168124,None,4,2,18,0,28.30726129980758,,,,,,,,,28.298706099856645,28.30726129980758,28.80687760002911,28.80687760002911,28.80687760002911,29.424354100134224,r,1,0.6063870997168124,None,,,,,,0001,001,2025-08-24_23h26.43.535,Stroop Task Data,2024.2.4,60.0255229069258,2025-08-24 23h27.03.693129 +0530,
RED,blue,I,b,19,3,4,b,1,0.6469682999886572,None,4,3,19,1,29.43961980007589,,,,,,,,,29.425391600001603,29.43961980007589,29.93917809985578,29.93917809985578,29.93917809985578,30.59069739980623,b,1,0.6469682999886572,None,,,,,,0001,001,2025-08-24_23h26.43.535,Stroop Task Data,2024.2.4,60.0255229069258,2025-08-24 23h27.03.693129 +0530,
RED,red,C,r,20,0,5,r,1,0.5805640001781285,None,5,0,20,0,30.605319399852306,,,,,,,,,30.59184500016272,30.605319399852306,31.1049278001301,31.1049278001301,31.1049278001301,31.689214299898595,r,1,0.5805640001781285,None,,,,,,0001,001,2025-08-24_23h26.43.535,Stroop Task Data,2024.2.4,60.0255229069258,2025-08-24 23h27.03.693129 +0530,
BLUE,red,I,r,21,1,5,r,1,0.5616689999587834,None,5,1,21,2,31.704449200071394,,,,,,,,,31.694885400123894,31.704449200071394,32.20409470004961,32.20409470004961,32.20409470004961,32.77153949998319,r,1,0.5616689999587834,None,,,,,,0001,001,2025-08-24_23h26.43.535,Stroop Task Data,2024.2.4,60.0255229069258,2025-08-24 23h27.03.693129 +0530,
BLUE,blue,C,b,22,2,5,b,1,0.512362000066787,None,5,2,22,3,32.786690699867904,,,,,,,,,32.772474199999124,32.786690699867904,33.28626450011507,33.28626450011507,33.28626450011507,33.803697700146586,b,1,0.512362000066787,None,,,,,,0001,001,2025-08-24_23h26.43.535,Stroop Task Data,2024.2.4,60.0255229069258,2025-08-24 23h27.03.693129 +0530,
RED,blue,I,b,23,3,5,b,1,0.4657713999040425,None,5,3,23,1,33.81912520015612,,,,,,,,,33.80931370006874,33.81912520015612,34.3187346002087,34.3187346002087,34.3187346002087,34.786814799997956,b,1,0.4657713999040425,None,,,,,,0001,001,2025-08-24_23h26.43.535,Stroop Task Data,2024.2.4,60.0255229069258,2025-08-24 23h27.03.693129 +0530,
BLUE,red,I,r,24,0,6,r,1,0.687914100009948,None,6,0,24,2,34.80166940018535,,,,,,,,,34.792043399997056,34.80166940018535,35.301190100144595,35.301190100144595,35.301190100144595,36.002044199965894,r,1,0.687914100009948,None,,,,,,0001,001,2025-08-24_23h26.43.535,Stroop Task Data,2024.2.4,60.0255229069258,2025-08-24 23h27.03.693129 +0530,
RED,red,C,r,25,1,6,r,1,0.536308899987489,None,6,1,25,0,36.01730599999428,,,,,,,,,36.00762369995937,36.01730599999428,36.51693180017173,36.51693180017173,36.51693180017173,37.067800499964505,r,1,0.536308899987489,None,,,,,,0001,001,2025-08-24_23h26.43.535,Stroop Task Data,2024.2.4,60.0255229069258,2025-08-24 23h27.03.693129 +0530,
BLUE,blue,C,b,26,2,6,b,1,0.4530945001170039,None,6,2,26,3,37.08320240024477,,,,,,,,,37.072730199899524,37.08320240024477,37.58282920019701,37.58282920019701,37.58282920019701,38.05009530019015,b,1,0.4530945001170039,None,,,,,,0001,001,2025-08-24_23h26.43.535,Stroop Task Data,2024.2.4,60.0255229069258,2025-08-24 23h27.03.693129 +0530,
RED,blue,I,b,27,3,6,b,1,0.521017299965024,None,6,3,27,1,38.06544549996033,,,,,,,,,38.05524040013552,38.06544549996033,38.56498550018296,38.56498550018296,38.56498550018296,39.099218300078064,b,1,0.521017299965024,None,,,,,,0001,001,2025-08-24_23h26.43.535,Stroop Task Data,2024.2.4,60.0255229069258,2025-08-24 23h27.03.693129 +0530,
RED,blue,I,b,28,0,7,r,0,0.5232047000899911,None,7,0,28,1,39.114496199879795,,,,,,,,,39.100296000018716,39.114496199879795,39.61409049993381,39.61409049993381,39.61409049993381,40.1483936002478,r,0,0.5232047000899911,None,,,,,,0001,001,2025-08-24_23h26.43.535,Stroop Task Data,2024.2.4,60.0255229069258,2025-08-24 23h27.03.693129 +0530,
RED,red,C,r,29,1,7,r,1,1.0550369997508824,None,7,1,29,0,40.16363500012085,,,,,,,,,40.14942969987169,40.16363500012085,40.6632142001763,40.6632142001763,40.6632142001763,41.73035410000011,r,1,1.0550369997508824,None,,,,,,0001,001,2025-08-24_23h26.43.535,Stroop Task Data,2024.2.4,60.0255229069258,2025-08-24 23h27.03.693129 +0530,
BLUE,blue,C,b,30,2,7,b,1,0.6457302998751402,None,7,2,30,3,41.745690499898046,,,,,,,,,41.73514560004696,41.745690499898046,42.24530419986695,42.24530419986695,42.24530419986695,42.89612739998847,b,1,0.6457302998751402,None,,,,,,0001,001,2025-08-24_23h26.43.535,Stroop Task Data,2024.2.4,60.0255229069258,2025-08-24 23h27.03.693129 +0530,
BLUE,red,I,r,31,3,7,r,1,0.5041804001666605,None,7,3,31,2,42.911184899974614,,,,,,,,,42.8971510999836,42.911184899974614,43.41077669989318,43.41077669989318,43.41077669989318,43.928454500157386,r,1,0.5041804001666605,None,,,,,,0001,001,2025-08-24_23h26.43.535,Stroop Task Data,2024.2.4,60.0255229069258,2025-08-24 23h27.03.693129 +0530,
RED,blue,I,b,32,0,8,b,1,0.5455892998725176,None,8,0,32,1,43.94431080017239,,,,,,,,,43.93424420012161,43.94431080017239,44.443305800203234,44.443305800203234,44.443305800203234,44.99412570009008,b,1,0.5455892998725176,None,,,,,,0001,001,2025-08-24_23h26.43.535,Stroop Task Data,2024.2.4,60.0255229069258,2025-08-24 23h27.03.693129 +0530,
BLUE,red,I,r,33,1,8,r,1,0.5388448997400701,None,8,1,33,2,45.00939780008048,,,,,,,,,44.998879599850625,45.00939780008048,45.5089445002377,45.5089445002377,45.5089445002377,46.05970670003444,r,1,0.5388448997400701,None,,,,,,0001,001,2025-08-24_23h26.43.535,Stroop Task Data,2024.2.4,60.0255229069258,2025-08-24 23h27.03.693129 +0530,
RED,red,C,r,34,2,8,r,1,0.52409110032022,None,8,2,34,0,46.07514610001817,,,,,,,,,46.06577320024371,46.07514610001817,46.57478290004656,46.57478290004656,46.57478290004656,47.109412900172174,r,1,0.52409110032022,None,,,,,,0001,001,2025-08-24_23h26.43.535,Stroop Task Data,2024.2.4,60.0255229069258,2025-08-24 23h27.03.693129 +0530,
BLUE,blue,C,b,35,3,8,b,1,0.5108582000248134,None,8,3,35,3,47.12435160018504,,,,,,,,,47.11522589996457,47.12435160018504,47.62400380009785,47.62400380009785,47.62400380009785,48.14129120018333,b,1,0.5108582000248134,None,,,,,,0001,001,2025-08-24_23h26.43.535,Stroop Task Data,2024.2.4,60.0255229069258,2025-08-24 23h27.03.693129 +0530,
BLUE,blue,C,b,36,0,9,b,1,11.30057410011068,None,9,0,36,3,48.156607599928975,,,,,,,,,48.1422991999425,48.156607599928975,48.65624669985846,48.65624669985846,48.65624669985846,59.96454059984535,b,1,11.30057410011068,None,53.15226119989529,,,,,0001,001,2025-08-24_23h26.43.535,Stroop Task Data,2024.2.4,60.0255229069258,2025-08-24 23h27.03.693129 +0530,
RED,blue,I,b,37,1,9,b,1,0.9297710000537336,None,9,1,37,1,59.97962350025773,,,,,,,,,59.970212399959564,59.97962350025773,60.479265099857,60.479265099857,60.479265099857,61.41339349979535,b,1,0.9297710000537336,None,,,,,,0001,001,2025-08-24_23h26.43.535,Stroop Task Data,2024.2.4,60.0255229069258,2025-08-24 23h27.03.693129 +0530,
BLUE,red,I,r,38,2,9,b,0,3.758264800067991,None,9,2,38,2,61.428460999857634,,,,,,,,,61.418418399989605,61.428460999857634,61.92825989983976,61.92825989983976,61.92825989983976,65.69307650020346,b,0,3.758264800067991,None,,,,,,0001,001,2025-08-24_23h26.43.535,Stroop Task Data,2024.2.4,60.0255229069258,2025-08-24 23h27.03.693129 +0530,
RED,red,C,r,39,3,9,r,1,1.5104698003269732,None,9,3,39,0,65.70810180017725,,,,,,,,,65.69967269990593,65.70810180017725,66.2076833001338,66.2076833001338,66.2076833001338,67.72454919992015,r,1,1.5104698003269732,None,,,,,,0001,001,2025-08-24_23h26.43.535,Stroop Task Data,2024.2.4,60.0255229069258,2025-08-24 23h27.03.693129 +0530,
RED,red,C,r,40,0,10,r,1,1.4292834997177124,None,10,0,40,0,67.7397155999206,,,,,,,,,67.72560869995505,67.7397155999206,68.23936669994146,68.23936669994146,68.23936669994146,69.67258029989898,r,1,1.4292834997177124,None,,,,,,0001,001,2025-08-24_23h26.43.535,Stroop Task Data,2024.2.4,60.0255229069258,2025-08-24 23h27.03.693129 +0530,
BLUE,blue,C,b,41,1,10,b,1,0.7476474996656179,None,10,1,41,3,69.68785199988633,,,,,,,,,69.67786209983751,69.68785199988633,70.1876779999584,70.1876779999584,70.1876779999584,70.9382718000561,b,1,0.7476474996656179,None,,,,,,0001,001,2025-08-24_23h26.43.535,Stroop Task Data,2024.2.4,60.0255229069258,2025-08-24 23h27.03.693129 +0530,
BLUE,red,I,r,42,2,10,r,1,0.7858455996029079,None,10,2,42,2,70.9534200001508,,,,,,,,,70.93922280007973,70.9534200001508,71.45341950003058,71.45341950003058,71.45341950003058,72.25374250020832,r,1,0.7858455996029079,None,,,,,,0001,001,2025-08-24_23h26.43.535,Stroop Task Data,2024.2.4,60.0255229069258,2025-08-24 23h27.03.693129 +0530,
RED,blue,I,b,43,3,10,b,1,0.85849400004372,None,10,3,43,1,72.2690977002494,,,,,,,,,72.25962619995698,72.2690977002494,72.76868040021509,72.76868040021509,72.76868040021509,73.63615550007671,b,1,0.85849400004372,None,,,,,,0001,001,2025-08-24_23h26.43.535,Stroop Task Data,2024.2.4,60.0255229069258,2025-08-24 23h27.03.693129 +0530,
BLUE,blue,C,b,44,0,11,b,1,0.4665895998477936,None,11,0,44,3,73.65110500017181,,,,,,,,,73.641172000207,73.65110500017181,74.15152949979529,74.15152949979529,74.15152949979529,74.63491989998147,b,1,0.4665895998477936,None,,,,,,0001,001,2025-08-24_23h26.43.535,Stroop Task Data,2024.2.4,60.0255229069258,2025-08-24 23h27.03.693129 +0530,
RED,blue,I,b,45,1,11,b,1,1.395940599963069,None,11,1,45,1,74.65018839994445,,,,,,,,,74.64019030006602,74.65018839994445,75.14979590009898,75.14979590009898,75.14979590009898,76.55006889998913,b,1,1.395940599963069,None,,,,,,0001,001,2025-08-24_23h26.43.535,Stroop Task Data,2024.2.4,60.0255229069258,2025-08-24 23h27.03.693129 +0530,
RED,red,C,r,46,2,11,r,1,0.6368869002908468,None,11,2,46,0,76.56525579979643,,,,,,,,,76.55110919987783,76.56525579979643,77.06495019979775,77.06495019979775,77.06495019979775,77.71577920019627,r,1,0.6368869002908468,None,,,,,,0001,001,2025-08-24_23h26.43.535,Stroop Task Data,2024.2.4,60.0255229069258,2025-08-24 23h27.03.693129 +0530,
BLUE,red,I,r,47,3,11,r,1,1.7574032000266016,None,11,3,47,2,77.73101689992473,,,,,,,,,77.7204708000645,77.73101689992473,78.23065249994397,78.23065249994397,78.23065249994397,79.99684459995478,r,1,1.7574032000266016,None,,,,,,0001,001,2025-08-24_23h26.43.535,Stroop Task Data,2024.2.4,60.0255229069258,2025-08-24 23h27.03.693129 +0530,
BLUE,blue,C,b,48,0,12,b,1,0.4920681999064982,None,12,0,48,3,80.01219569984823,,,,,,,,,79.99774579983205,80.01219569984823,80.51181269995868,80.51181269995868,80.51181269995868,81.01262369984761,b,1,0.4920681999064982,None,,,,,,0001,001,2025-08-24_23h26.43.535,Stroop Task Data,2024.2.4,60.0255229069258,2025-08-24 23h27.03.693129 +0530,
BLUE,red,I,r,49,1,12,r,1,0.6139575000852346,None,12,1,49,2,81.02803139993921,,,,,,,,,81.01358949998394,81.02803139993921,81.52761700004339,81.52761700004339,81.52761700004339,82.14520209981129,r,1,0.6139575000852346,None,,,,,,0001,001,2025-08-24_23h26.43.535,Stroop Task Data,2024.2.4,60.0255229069258,2025-08-24 23h27.03.693129 +0530,
RED,red,C,r,50,2,12,r,1,0.8379087001085281,None,12,2,50,0,82.16043750010431,,,,,,,,,82.15109550021589,82.16043750010431,82.66011669998989,82.66011669998989,82.66011669998989,83.5111326999031,r,1,0.8379087001085281,None,,,,,,0001,001,2025-08-24_23h26.43.535,Stroop Task Data,2024.2.4,60.0255229069258,2025-08-24 23h27.03.693129 +0530,
RED,blue,I,b,51,3,12,b,1,0.5168651998974383,None,12,3,51,1,83.52611800003797,,,,,,,,,83.51227249996737,83.52611800003797,84.02535910019651,84.02535910019651,84.02535910019651,84.55962949991226,b,1,0.5168651998974383,None,,,,,,0001,001,2025-08-24_23h26.43.535,Stroop Task Data,2024.2.4,60.0255229069258,2025-08-24 23h27.03.693129 +0530,
RED,red,C,r,52,0,13,r,1,0.7133832001127303,None,13,0,52,0,84.57487819995731,,,,,,,,,84.56062840018421,84.57487819995731,85.07445099996403,85.07445099996403,85.07445099996403,85.79223529994488,r,1,0.7133832001127303,None,,,,,,0001,001,2025-08-24_23h26.43.535,Stroop Task Data,2024.2.4,60.0255229069258,2025-08-24 23h27.03.693129 +0530,
BLUE,red,I,r,53,1,13,r,1,0.8378189001232386,None,13,1,53,2,85.80716180009767,,,,,,,,,85.79753390001133,85.80716180009767,86.30683090025559,86.30683090025559,86.30683090025559,87.15782599989325,r,1,0.8378189001232386,None,,,,,,0001,001,2025-08-24_23h26.43.535,Stroop Task Data,2024.2.4,60.0255229069258,2025-08-24 23h27.03.693129 +0530,
RED,blue,I,b,54,2,13,b,1,0.6368879000656307,None,13,2,54,1,87.17271880013868,,,,,,,,,87.16389660025015,87.17271880013868,87.67233760003,87.67233760003,87.67233760003,88.32335640024394,b,1,0.6368879000656307,None,,,,,,0001,001,2025-08-24_23h26.43.535,Stroop Task Data,2024.2.4,60.0255229069258,2025-08-24 23h27.03.693129 +0530,
BLUE,blue,C,b,55,3,13,b,1,0.5001126001589,None,13,3,55,3,88.33853230020031,,,,,,,,,88.32818960025907,88.33853230020031,88.8384442999959,88.8384442999959,88.8384442999959,89.35544819990173,b,1,0.5001126001589,None,,,,,,0001,001,2025-08-24_23h26.43.535,Stroop Task Data,2024.2.4,60.0255229069258,2025-08-24 23h27.03.693129 +0530,
RED,red,C,r,56,0,14,r,1,0.852867899928242,None,14,0,56,0,89.3707538000308,,,,,,,,,89.36088210018352,89.3707538000308,89.87028100015596,89.87028100015596,89.87028100015596,90.73778330022469,r,1,0.852867899928242,None,,,,,,0001,001,2025-08-24_23h26.43.535,Stroop Task Data,2024.2.4,60.0255229069258,2025-08-24 23h27.03.693129 +0530,
BLUE,red,I,r,57,1,14,r,1,1.126739699859172,None,14,1,57,2,90.75282760011032,,,,,,,,,90.74280600016937,90.75282760011032,91.2524132002145,91.2524132002145,91.2524132002145,92.38634089985862,r,1,1.126739699859172,None,,,,,,0001,001,2025-08-24_23h26.43.535,Stroop Task Data,2024.2.4,60.0255229069258,2025-08-24 23h27.03.693129 +0530,
BLUE,blue,C,b,58,2,14,b,1,0.5521138999611139,None,14,2,58,3,92.40148909995332,,,,,,,,,92.38727860013023,92.40148909995332,92.90109150018543,92.90109150018543,92.90109150018543,93.4684905000031,b,1,0.5521138999611139,None,,,,,,0001,001,2025-08-24_23h26.43.535,Stroop Task Data,2024.2.4,60.0255229069258,2025-08-24 23h27.03.693129 +0530,
RED,blue,I,b,59,3,14,b,1,0.532436799723655,None,14,3,59,1,93.48397589987144,,,,,,,,,93.47452960023656,93.48397589987144,93.9833531002514,93.9833531002514,93.9833531002514,94.51813780004159,b,1,0.532436799723655,None,,,,,,0001,001,2025-08-24_23h26.43.535,Stroop Task Data,2024.2.4,60.0255229069258,2025-08-24 23h27.03.693129 +0530,
BLUE,blue,C,b,60,0,15,b,1,0.6032787999138236,None,15,0,60,3,94.53280750010163,,,,,,,,,94.52341690007597,94.53280750010163,95.03243310004473,95.03243310004473,95.03243310004473,95.65000300016254,b,1,0.6032787999138236,None,,,,,,0001,001,2025-08-24_23h26.43.535,Stroop Task Data,2024.2.4,60.0255229069258,2025-08-24 23h27.03.693129 +0530,
RED,red,C,r,61,1,15,r,1,0.47792720003053546,None,15,1,61,0,95.66521820006892,,,,,,,,,95.65620440011844,95.66521820006892,96.16475210012868,96.16475210012868,96.16475210012868,96.64903229987249,r,1,0.47792720003053546,None,,,,,,0001,001,2025-08-24_23h26.43.535,Stroop Task Data,2024.2.4,60.0255229069258,2025-08-24 23h27.03.693129 +0530,
BLUE,red,I,r,62,2,15,r,1,1.444665199611336,None,15,2,62,2,96.66432239999995,,,,,,,,,96.65377420000732,96.66432239999995,97.16397370025516,97.16397370025516,97.16397370025516,98.61415430018678,r,1,1.444665199611336,None,,,,,,0001,001,2025-08-24_23h26.43.535,Stroop Task Data,2024.2.4,60.0255229069258,2025-08-24 23h27.03.693129 +0530,
RED,blue,I,b,63,3,15,b,1,0.4704987001605332,None,15,3,63,1,98.62943879980594,,,,,,,,,98.61962640006095,98.62943879980594,99.12891149986535,99.12891149986535,99.12891149986535,99.61315910005942,b,1,0.4704987001605332,None,,,,,,0001,001,2025-08-24_23h26.43.535,Stroop Task Data,2024.2.4,60.0255229069258,2025-08-24 23h27.03.693129 +0530,
BLUE,blue,C,b,64,0,16,b,1,0.40263270027935505,None,16,0,64,3,99.62887880019844,,,,,,,,,99.6196869998239,99.62887880019844,100.12799410009757,100.12799410009757,100.12799410009757,100.54566399985924,b,1,0.40263270027935505,None,,,,,,0001,001,2025-08-24_23h26.43.535,Stroop Task Data,2024.2.4,60.0255229069258,2025-08-24 23h27.03.693129 +0530,
RED,blue,I,b,65,1,16,b,1,0.3923888998106122,None,16,1,65,1,100.56116490019485,,,,,,,,,100.55118090007454,100.56116490019485,101.06052310019732,101.06052310019732,101.06052310019732,101.46160069992766,b,1,0.3923888998106122,None,,,,,,0001,001,2025-08-24_23h26.43.535,Stroop Task Data,2024.2.4,60.0255229069258,2025-08-24 23h27.03.693129 +0530,
RED,red,C,r,66,2,16,r,1,0.4591854000464082,None,16,2,66,0,101.47684019990265,,,,,,,,,101.46252610022202,101.47684019990265,101.97644100012258,101.97644100012258,101.97644100012258,102.44407339999452,r,1,0.4591854000464082,None,,,,,,0001,001,2025-08-24_23h26.43.535,Stroop Task Data,2024.2.4,60.0255229069258,2025-08-24 23h27.03.693129 +0530,
BLUE,red,I,r,67,3,16,r,1,0.3602002998813987,None,16,3,67,2,102.45934979990125,,,,,,,,,102.44876650022343,102.45934979990125,102.95903050014749,102.95903050014749,102.95903050014749,103.32717610010877,r,1,0.3602002998813987,None,,,,,,0001,001,2025-08-24_23h26.43.535,Stroop Task Data,2024.2.4,60.0255229069258,2025-08-24 23h27.03.693129 +0530,
RED,red,C,r,68,0,17,r,1,0.5391203002072871,None,17,0,68,0,103.34202660014853,,,,,,,,,103.33261909987777,103.34202660014853,103.84163419995457,103.84163419995457,103.84163419995457,104.39222550019622,r,1,0.5391203002072871,None,,,,,,0001,001,2025-08-24_23h26.43.535,Stroop Task Data,2024.2.4,60.0255229069258,2025-08-24 23h27.03.693129 +0530,
BLUE,red,I,r,69,1,17,r,1,0.3946009003557265,None,17,1,69,2,104.4075800999999,,,,,,,,,104.39720909995958,104.4075800999999,104.90722399996594,104.90722399996594,104.90722399996594,105.3083309000358,r,1,0.3946009003557265,None,,,,,,0001,001,2025-08-24_23h26.43.535,Stroop Task Data,2024.2.4,60.0255229069258,2025-08-24 23h27.03.693129 +0530,
RED,blue,I,b,70,2,17,b,1,0.4845815999433398,None,17,2,70,1,105.32349789980799,,,,,,,,,105.31403770018369,105.32349789980799,105.82304040016606,105.82304040016606,105.82304040016606,106.32412220025435,b,1,0.4845815999433398,None,,,,,,0001,001,2025-08-24_23h26.43.535,Stroop Task Data,2024.2.4,60.0255229069258,2025-08-24 23h27.03.693129 +0530,
BLUE,blue,C,b,71,3,17,b,1,0.4439546000212431,None,17,3,71,3,106.33929269993678,,,,,,,,,106.33009089995176,106.33929269993678,106.83889689994976,106.83889689994976,106.83889689994976,107.29035340016708,b,1,0.4439546000212431,None,,,,,,0001,001,2025-08-24_23h26.43.535,Stroop Task Data,2024.2.4,60.0255229069258,2025-08-24 23h27.03.693129 +0530,
RED,red,C,r,72,0,18,r,1,0.47752900002524257,None,18,0,72,0,107.30517459986731,,,,,,,,,107.29577710013837,107.30517459986731,107.80477140005678,107.80477140005678,107.80477140005678,108.2894325000234,r,1,0.47752900002524257,None,,,,,,0001,001,2025-08-24_23h26.43.535,Stroop Task Data,2024.2.4,60.0255229069258,2025-08-24 23h27.03.693129 +0530,
BLUE,red,I,r,73,1,18,b,0,0.5759775997139513,None,18,1,73,2,108.30435190023854,,,,,,,,,108.29489090014249,108.30435190023854,108.80403980007395,108.80403980007395,108.80403980007395,109.3882049000822,b,0,0.5759775997139513,None,,,,,,0001,001,2025-08-24_23h26.43.535,Stroop Task Data,2024.2.4,60.0255229069258,2025-08-24 23h27.03.693129 +0530,
BLUE,blue,C,b,74,2,18,b,1,0.5339623000472784,None,18,2,74,3,109.40327800018713,,,,,,,,,109.3891495000571,109.40327800018713,109.90283309994265,109.90283309994265,109.90283309994265,110.45375330001116,b,1,0.5339623000472784,None,,,,,,0001,001,2025-08-24_23h26.43.535,Stroop Task Data,2024.2.4,60.0255229069258,2025-08-24 23h27.03.693129 +0530,
RED,blue,I,b,75,3,18,b,1,0.37634219974279404,None,18,3,75,1,110.46896179998294,,,,,,,,,110.46027000015602,110.46896179998294,110.96857419982553,110.96857419982553,110.96857419982553,111.35297450004146,b,1,0.37634219974279404,None,,,,,,0001,001,2025-08-24_23h26.43.535,Stroop Task Data,2024.2.4,60.0255229069258,2025-08-24 23h27.03.693129 +0530,
BLUE,blue,C,b,76,0,19,b,1,0.44472189992666245,None,19,0,76,3,111.36818070011213,,,,,,,,,111.35813930025324,111.36818070011213,111.86779000004753,111.86779000004753,111.86779000004753,112.31899440009147,b,1,0.44472189992666245,None,,,,,,0001,001,2025-08-24_23h26.43.535,Stroop Task Data,2024.2.4,60.0255229069258,2025-08-24 23h27.03.693129 +0530,
RED,red,C,r,77,1,19,r,1,0.4284040997736156,None,19,1,77,0,112.33406660007313,,,,,,,,,112.32480870001018,112.33406660007313,112.83367690024897,112.83367690024897,112.83367690024897,113.2681673001498,r,1,0.4284040997736156,None,,,,,,0001,001,2025-08-24_23h26.43.535,Stroop Task Data,2024.2.4,60.0255229069258,2025-08-24 23h27.03.693129 +0530,
RED,blue,I,b,78,2,19,b,1,0.46361880004405975,None,19,2,78,1,113.28331919992343,,,,,,,,,113.26943129999563,113.28331919992343,113.78293630015105,113.78293630015105,113.78293630015105,114.25081280013546,b,1,0.46361880004405975,None,,,,,,0001,001,2025-08-24_23h26.43.535,Stroop Task Data,2024.2.4,60.0255229069258,2025-08-24 23h27.03.693129 +0530,
BLUE,red,I,r,79,3,19,r,1,0.43085369979962707,None,19,3,79,2,114.26593019999564,,,,,,,,,114.25601080013439,114.26593019999564,114.76522770011798,114.76522770011798,114.76522770011798,115.200039899908,r,1,0.43085369979962707,None,,,,,,0001,001,2025-08-24_23h26.43.535,Stroop Task Data,2024.2.4,60.0255229069258,2025-08-24 23h27.03.693129 +0530,
RED,blue,I,b,80,0,20,b,1,0.4009540001861751,None,20,0,80,1,115.21483389986679,,,,,,,,,115.20578239997849,115.21483389986679,115.71440530009568,115.71440530009568,115.71440530009568,116.13213559985161,b,1,0.4009540001861751,None,,,,,,0001,001,2025-08-24_23h26.43.535,Stroop Task Data,2024.2.4,60.0255229069258,2025-08-24 23h27.03.693129 +0530,
RED,red,C,r,81,1,20,r,1,0.4769767001271248,None,20,1,81,0,116.14736780012026,,,,,,,,,116.13309590006247,116.14736780012026,116.64694610005245,116.64694610005245,116.64694610005245,117.13165860017762,r,1,0.4769767001271248,None,,,,,,0001,001,2025-08-24_23h26.43.535,Stroop Task Data,2024.2.4,60.0255229069258,2025-08-24 23h27.03.693129 +0530,
BLUE,red,I,r,82,2,20,r,1,0.42481019999831915,None,20,2,82,2,117.14685790007934,,,,,,,,,117.13712419988587,117.14685790007934,117.64611510001123,117.64611510001123,117.64611510001123,118.08063950017095,r,1,0.42481019999831915,None,,,,,,0001,001,2025-08-24_23h26.43.535,Stroop Task Data,2024.2.4,60.0255229069258,2025-08-24 23h27.03.693129 +0530,
BLUE,blue,C,b,83,3,20,b,1,0.6438184999860823,None,20,3,83,3,118.09579649986699,,,,,,,,,118.0816282001324,118.09579649986699,118.59537479979917,118.59537479979917,118.59537479979917,119.24647219991311,b,1,0.6438184999860823,None,,,,,,0001,001,2025-08-24_23h26.43.535,Stroop Task Data,2024.2.4,60.0255229069258,2025-08-24 23h27.03.693129 +0530,
BLUE,red,I,r,84,0,21,r,1,0.4339323998428881,None,21,0,84,2,119.26155509985983,,,,,,,,,119.24743539979681,119.26155509985983,119.76091840025038,119.76091840025038,119.76091840025038,120.21220749989152,r,1,0.4339323998428881,None,,,,,,0001,001,2025-08-24_23h26.43.535,Stroop Task Data,2024.2.4,60.0255229069258,2025-08-24 23h27.03.693129 +0530,
RED,red,C,r,85,1,21,r,1,0.566913700196892,None,21,1,85,0,120.22715089982376,,,,,,,,,120.21805919986218,120.22715089982376,120.7267352999188,120.7267352999188,120.7267352999188,121.31080170022324,r,1,0.566913700196892,None,,,,,,0001,001,2025-08-24_23h26.43.535,Stroop Task Data,2024.2.4,60.0255229069258,2025-08-24 23h27.03.693129 +0530,
RED,blue,I,b,86,2,21,b,1,0.8081439002417028,None,21,2,86,1,121.32621309999377,,,,,,,,,121.31180100003257,121.32621309999377,121.82580230012536,121.82580230012536,121.82580230012536,122.64317770022899,b,1,0.8081439002417028,None,,,,,,0001,001,2025-08-24_23h26.43.535,Stroop Task Data,2024.2.4,60.0255229069258,2025-08-24 23h27.03.693129 +0530,
BLUE,blue,C,b,87,3,21,b,1,0.5591547000221908,None,21,3,87,3,122.65839090012014,,,,,,,,,122.64874550001696,122.65839090012014,123.15801959997043,123.15801959997043,123.15801959997043,123.72580360015854,b,1,0.5591547000221908,None,,,,,,0001,001,2025-08-24_23h26.43.535,Stroop Task Data,2024.2.4,60.0255229069258,2025-08-24 23h27.03.693129 +0530,
BLUE,red,I,r,88,0,22,r,1,0.4704129998572171,None,22,0,88,2,123.74097800021991,,,,,,,,,123.72685120021924,123.74097800021991,124.24052410013974,124.24052410013974,124.24052410013974,124.7245976999402,r,1,0.4704129998572171,None,,,,,,0001,001,2025-08-24_23h26.43.535,Stroop Task Data,2024.2.4,60.0255229069258,2025-08-24 23h27.03.693129 +0530,
BLUE,blue,C,b,89,1,22,b,1,0.4309751996770501,None,22,1,89,3,124.73988510016352,,,,,,,,,124.72561720013618,124.73988510016352,125.23949920013547,125.23949920013547,125.23949920013547,125.67397789983079,b,1,0.4309751996770501,None,,,,,,0001,001,2025-08-24_23h26.43.535,Stroop Task Data,2024.2.4,60.0255229069258,2025-08-24 23h27.03.693129 +0530,
RED,red,C,r,90,2,22,r,1,0.45846370002254844,None,22,2,90,0,125.68904760014266,,,,,,,,,125.67948079993948,125.68904760014266,126.18858900014311,126.18858900014311,126.18858900014311,126.65639849985018,r,1,0.45846370002254844,None,,,,,,0001,001,2025-08-24_23h26.43.535,Stroop Task Data,2024.2.4,60.0255229069258,2025-08-24 23h27.03.693129 +0530,
RED,blue,I,b,91,3,22,b,1,0.4431328000500798,None,22,3,91,1,126.67198870005086,,,,,,,,,126.65754059981555,126.67198870005086,127.17112840013579,127.17112840013579,127.17112840013579,127.62223030021414,b,1,0.4431328000500798,None,,,,,,0001,001,2025-08-24_23h26.43.535,Stroop Task Data,2024.2.4,60.0255229069258,2025-08-24 23h27.03.693129 +0530,
RED,red,C,r,92,0,23,r,1,0.5041701002046466,None,23,0,92,0,127.63740890007466,,,,,,,,,127.62314980011433,127.63740890007466,128.13700659992173,128.13700659992173,128.13700659992173,128.65468230005354,r,1,0.5041701002046466,None,,,,,,0001,001,2025-08-24_23h26.43.535,Stroop Task Data,2024.2.4,60.0255229069258,2025-08-24 23h27.03.693129 +0530,
RED,blue,I,b,93,1,23,b,1,0.7203315999358892,None,23,1,93,1,128.66992409992963,,,,,,,,,128.65579140000045,128.66992409992963,129.16952400002629,129.16952400002629,129.16952400002629,129.90334150008857,b,1,0.7203315999358892,None,,,,,,0001,001,2025-08-24_23h26.43.535,Stroop Task Data,2024.2.4,60.0255229069258,2025-08-24 23h27.03.693129 +0530,
BLUE,blue,C,b,94,2,23,b,1,0.4791667000390589,None,23,2,94,3,129.91875849990174,,,,,,,,,129.90867129992694,129.91875849990174,130.41824749996886,130.41824749996886,130.41824749996886,130.90250399988145,b,1,0.4791667000390589,None,,,,,,0001,001,2025-08-24_23h26.43.535,Stroop Task Data,2024.2.4,60.0255229069258,2025-08-24 23h27.03.693129 +0530,
BLUE,red,I,r,95,3,23,r,1,0.5893166000023484,None,23,3,95,2,130.91779740015045,,,,,,,,,130.90345950005576,130.91779740015045,131.4173885001801,131.4173885001801,131.4173885001801,132.01823640009388,r,1,0.5893166000023484,None,,,,,,0001,001,2025-08-24_23h26.43.535,Stroop Task Data,2024.2.4,60.0255229069258,2025-08-24 23h27.03.693129 +0530,
BLUE,red,I,r,96,0,24,r,1,0.48077719984576106,None,24,0,96,2,132.03351320000365,,,,,,,,,132.01924599986523,132.03351320000365,132.5331331999041,132.5331331999041,132.5331331999041,133.01754850009456,r,1,0.48077719984576106,None,,,,,,0001,001,2025-08-24_23h26.43.535,Stroop Task Data,2024.2.4,60.0255229069258,2025-08-24 23h27.03.693129 +0530,
BLUE,blue,C,b,97,1,24,b,1,0.5146666001528502,None,24,1,97,3,133.03270450001583,,,,,,,,,133.01851199986413,133.03270450001583,133.53232540003955,133.53232540003955,133.53232540003955,134.05084870010614,b,1,0.5146666001528502,None,,,,,,0001,001,2025-08-24_23h26.43.535,Stroop Task Data,2024.2.4,60.0255229069258,2025-08-24 23h27.03.693129 +0530,
RED,red,C,r,98,2,24,r,1,0.5079413000494242,None,24,2,98,0,134.0675699999556,,,,,,,,,134.05677889985964,134.0675699999556,134.5648659998551,134.5648659998551,134.5648659998551,135.08249180018902,r,1,0.5079413000494242,None,,,,,,0001,001,2025-08-24_23h26.43.535,Stroop Task Data,2024.2.4,60.0255229069258,2025-08-24 23h27.03.693129 +0530,
RED,blue,I,b,99,3,24,b,1,0.6606914000585675,None,24,3,99,1,135.0978188002482,,,,,,,,,135.08341709990054,135.0978188002482,135.59745320025831,135.59745320025831,135.59745320025831,136.2651185002178,b,1,0.6606914000585675,None,,,,,,0001,001,2025-08-24_23h26.43.535,Stroop Task Data,2024.2.4,60.0255229069258,2025-08-24 23h27.03.693129 +0530,
BLUE,red,I,r,100,0,25,r,1,0.5779039999470115,None,25,0,100,2,136.2804276002571,,,,,,,,,136.2708402001299,136.2804276002571,136.7800511000678,136.7800511000678,136.7800511000678,137.36432280018926,r,1,0.5779039999470115,None,,,,,,0001,001,2025-08-24_23h26.43.535,Stroop Task Data,2024.2.4,60.0255229069258,2025-08-24 23h27.03.693129 +0530,
BLUE,blue,C,b,101,1,25,b,1,0.8308287998661399,None,25,1,101,3,137.37946909992024,,,,,,,,,137.36530929990113,137.37946909992024,137.87907150015235,137.87907150015235,137.87907150015235,138.7131046000868,b,1,0.8308287998661399,None,,,,,,0001,001,2025-08-24_23h26.43.535,Stroop Task Data,2024.2.4,60.0255229069258,2025-08-24 23h27.03.693129 +0530,
RED,blue,I,b,102,2,25,b,1,0.4246133998967707,None,25,2,102,1,138.72828970011324,,,,,,,,,138.71891780011356,138.72828970011324,139.22787520010024,139.22787520010024,139.22787520010024,139.66230709990487,b,1,0.4246133998967707,None,,,,,,0001,001,2025-08-24_23h26.43.535,Stroop Task Data,2024.2.4,60.0255229069258,2025-08-24 23h27.03.693129 +0530,
RED,red,C,r,103,3,25,r,1,0.6189564997330308,None,25,3,103,0,139.67746330006048,,,,,,,,,139.66324089979753,139.67746330006048,140.17643549991772,140.17643549991772,140.17643549991772,140.81060989992693,r,1,0.6189564997330308,None,,,,,,0001,001,2025-08-24_23h26.43.535,Stroop Task Data,2024.2.4,60.0255229069258,2025-08-24 23h27.03.693129 +0530,
RED,red,C,r,104,0,26,r,1,0.47231220034882426,None,26,0,104,0,140.82587260007858,,,,,,,,,140.8116170000285,140.82587260007858,141.32543329987675,141.32543329987675,141.32543329987675,141.80969179980457,r,1,0.47231220034882426,None,,,,,,0001,001,2025-08-24_23h26.43.535,Stroop Task Data,2024.2.4,60.0255229069258,2025-08-24 23h27.03.693129 +0530,
BLUE,red,I,r,105,1,26,r,1,0.4174677999690175,None,26,1,105,2,141.82496140012518,,,,,,,,,141.81448769988492,141.82496140012518,142.32453669980168,142.32453669980168,142.32453669980168,142.7587170000188,r,1,0.4174677999690175,None,,,,,,0001,001,2025-08-24_23h26.43.535,Stroop Task Data,2024.2.4,60.0255229069258,2025-08-24 23h27.03.693129 +0530,
RED,blue,I,b,106,2,26,b,1,0.48913060035556555,None,26,2,106,1,142.77419110015035,,,,,,,,,142.7642688001506,142.77419110015035,143.27385760005563,143.27385760005563,143.27385760005563,143.77448910009116,b,1,0.48913060035556555,None,,,,,,0001,001,2025-08-24_23h26.43.535,Stroop Task Data,2024.2.4,60.0255229069258,2025-08-24 23h27.03.693129 +0530,
BLUE,blue,C,b,107,3,26,b,1,0.4486787999048829,None,26,3,107,3,143.79000659985468,,,,,,,,,143.77940140012652,143.79000659985468,144.2896497999318,144.2896497999318,144.2896497999318,144.74091129982844,b,1,0.4486787999048829,None,,,,,,0001,001,2025-08-24_23h26.43.535,Stroop Task Data,2024.2.4,60.0255229069258,2025-08-24 23h27.03.693129 +0530,
RED,red,C,r,108,0,27,r,1,1.3335996000096202,None,27,0,108,0,144.75601200014353,,,,,,,,,144.74654670013115,144.75601200014353,145.25532709993422,145.25532709993422,145.25532709993422,146.60571420006454,r,1,1.3335996000096202,None,,,,,,0001,001,2025-08-24_23h26.43.535,Stroop Task Data,2024.2.4,60.0255229069258,2025-08-24 23h27.03.693129 +0530,
RED,blue,I,b,109,1,27,b,1,0.5176427997648716,None,27,1,109,1,146.62080769985914,,,,,,,,,146.60677880002186,146.62080769985914,147.1203653998673,147.1203653998673,147.1203653998673,147.65460269991308,b,1,0.5176427997648716,None,,,,,,0001,001,2025-08-24_23h26.43.535,Stroop Task Data,2024.2.4,60.0255229069258,2025-08-24 23h27.03.693129 +0530,
BLUE,red,I,r,110,2,27,r,1,0.4816541997715831,None,27,2,110,2,147.6698819999583,,,,,,,,,147.65979869989678,147.6698819999583,148.16950140008703,148.16950140008703,148.16950140008703,148.653787500225,r,1,0.4816541997715831,None,,,,,,0001,001,2025-08-24_23h26.43.535,Stroop Task Data,2024.2.4,60.0255229069258,2025-08-24 23h27.03.693129 +0530,
BLUE,blue,C,b,111,3,27,b,1,0.4251711000688374,None,27,3,111,3,148.66909949993715,,,,,,,,,148.65468249982223,148.66909949993715,149.16869660001248,149.16869660001248,149.16869660001248,149.60294720018283,b,1,0.4251711000688374,None,,,,,,0001,001,2025-08-24_23h26.43.535,Stroop Task Data,2024.2.4,60.0255229069258,2025-08-24 23h27.03.693129 +0530,
BLUE,red,I,r,112,0,28,r,1,0.3954361998476088,None,28,0,112,2,149.61838740017265,,,,,,,,,149.6036318000406,149.61838740017265,150.11800940008834,150.11800940008834,150.11800940008834,150.5189265999943,r,1,0.3954361998476088,None,,,,,,0001,001,2025-08-24_23h26.43.535,Stroop Task Data,2024.2.4,60.0255229069258,2025-08-24 23h27.03.693129 +0530,
RED,red,C,r,113,1,28,r,1,0.5037525999359787,None,28,1,113,0,150.53401790000498,,,,,,,,,150.52417390001938,150.53401790000498,151.03358890023082,151.03358890023082,151.03358890023082,151.55130740022287,r,1,0.5037525999359787,None,,,,,,0001,001,2025-08-24_23h26.43.535,Stroop Task Data,2024.2.4,60.0255229069258,2025-08-24 23h27.03.693129 +0530,
BLUE,blue,C,b,114,2,28,b,1,0.3902877001091838,None,28,2,114,3,151.56651159981266,,,,,,,,,151.5560849001631,151.56651159981266,152.0660581998527,152.0660581998527,152.0660581998527,152.4672365002334,b,1,0.3902877001091838,None,,,,,,0001,001,2025-08-24_23h26.43.535,Stroop Task Data,2024.2.4,60.0255229069258,2025-08-24 23h27.03.693129 +0530,
RED,blue,I,b,115,3,28,b,1,0.4719863999634981,None,28,3,115,1,152.48239139979705,,,,,,,,,152.47351719997823,152.48239139979705,152.9819622002542,152.9819622002542,152.9819622002542,153.4666702002287,b,1,0.4719863999634981,None,,,,,,0001,001,2025-08-24_23h26.43.535,Stroop Task Data,2024.2.4,60.0255229069258,2025-08-24 23h27.03.693129 +0530,
BLUE,blue,C,b,116,0,29,b,1,0.4535372001118958,None,29,0,116,3,153.48156919982284,,,,,,,,,153.47151370020583,153.48156919982284,153.98255599988624,153.98255599988624,153.98255599988624,154.44894429994747,b,1,0.4535372001118958,None,,,,,,0001,001,2025-08-24_23h26.43.535,Stroop Task Data,2024.2.4,60.0255229069258,2025-08-24 23h27.03.693129 +0530,
RED,red,C,r,117,1,29,r,1,0.47909520007669926,None,29,1,117,0,154.46409439994022,,,,,,,,,154.4543083999306,154.46409439994022,154.96376070007682,154.96376070007682,154.96376070007682,155.44772770022973,r,1,0.47909520007669926,None,,,,,,0001,001,2025-08-24_23h26.43.535,Stroop Task Data,2024.2.4,60.0255229069258,2025-08-24 23h27.03.693129 +0530,
RED,blue,I,b,118,2,29,b,1,0.6005008001811802,None,29,2,118,1,155.46308000013232,,,,,,,,,155.44914049981162,155.46308000013232,155.96264379983768,155.96264379983768,155.96264379983768,156.58012330019847,b,1,0.6005008001811802,None,,,,,,0001,001,2025-08-24_23h26.43.535,Stroop Task Data,2024.2.4,60.0255229069258,2025-08-24 23h27.03.693129 +0530,
BLUE,red,I,r,119,3,29,r,1,0.46610610000789165,None,29,3,119,2,156.5954279000871,,,,,,,,,156.58472889987752,156.5954279000871,157.0949948001653,157.0949948001653,157.0949948001653,157.56301969988272,r,1,0.46610610000789165,None,,,,,,0001,001,2025-08-24_23h26.43.535,Stroop Task Data,2024.2.4,60.0255229069258,2025-08-24 23h27.03.693129 +0530,
,,,,,,,,,,,,,,,,,,,,,,,,,,,,,,,,,,,157.56325270002708,157.57790730008855,158.57714160019532,158.5613559000194,0001,001,2025-08-24_23h26.43.535,Stroop Task Data,2024.2.4,60.0255229069258,2025-08-24 23h27.03.693129 +0530,
