word,colour,stim_condition,correct_res,thisN,thisTrialN,thisRepN,key_resp.keys,key_resp.corr,key_resp.rt,key_resp.duration,trials.thisRepN,trials.thisTrialN,trials.thisN,trials.thisIndex,thisRow.t,notes,Instructions.started,text_2.started,key_resp_2.started,Instructions.stopped,key_resp_2.keys,key_resp_2.rt,key_resp_2.duration,trial.started,fixation.started,fixation.stopped,text.started,key_resp.started,trial.stopped,trials.key_resp.keys,trials.key_resp.corr,trials.key_resp.rt,trials.key_resp.duration,Thanks.started,text_3.started,text_3.stopped,Thanks.stopped,participant,session,date,expName,psychopyVersion,frameRate,expStart,
,,,,,,,,,,,,,,,,,0.002747899852693081,0.009140999987721443,0.009140999987721443,42.31750619970262,space,42.29116360004991,None,,,,,,,,,,,,,,,0002,001,2025-08-26_16h21.15.904,Stroop Task Data,2024.2.4,60.04321908869413,2025-08-26 16h25.08.223446 +0530,
RED,red,C,r,0,0,0,r,1,1.1901179999113083,None,0,0,0,0,42.34948079986498,,,,,,,,,42.343837100081146,42.34948079986498,42.832188999745995,42.832188999745995,42.832188999745995,44.032211899757385,r,1,1.1901179999113083,None,,,,,0002,001,2025-08-26_16h21.15.904,Stroop Task Data,2024.2.4,60.04321908869413,2025-08-26 16h25.08.223446 +0530,
BLUE,red,I,r,1,1,0,r,1,0.737665000371635,None,0,1,1,2,44.04774239985272,,,,,,,,,44.038049299735576,44.04774239985272,44.5467044999823,44.5467044999823,44.5467044999823,45.298313200008124,r,1,0.737665000371635,None,,,,,0002,001,2025-08-26_16h21.15.904,Stroop Task Data,2024.2.4,60.04321908869413,2025-08-26 16h25.08.223446 +0530,
RED,blue,I,b,2,2,0,b,1,0.8517467998899519,None,0,2,2,1,45.313168100081384,,,,,,,,,45.30418929969892,45.313168100081384,45.81271889992058,45.81271889992058,45.81271889992058,46.679901499766856,b,1,0.8517467998899519,None,,,,,0002,001,2025-08-26_16h21.15.904,Stroop Task Data,2024.2.4,60.04321908869413,2025-08-26 16h25.08.223446 +0530,
BLUE,blue,C,b,3,3,0,b,1,0.578500899951905,None,0,3,3,3,46.695352300070226,,,,,,,,,46.68454959988594,46.695352300070226,47.19497309997678,47.19497309997678,47.19497309997678,47.77914869971573,b,1,0.578500899951905,None,,,,,0002,001,2025-08-26_16h21.15.904,Stroop Task Data,2024.2.4,60.04321908869413,2025-08-26 16h25.08.223446 +0530,
RED,blue,I,b,4,0,1,b,1,0.5715052001178265,None,1,0,4,1,47.794433099683374,,,,,,,,,47.78455370012671,47.794433099683374,48.29406759981066,48.29406759981066,48.29406759981066,48.87820279970765,b,1,0.5715052001178265,None,,,,,0002,001,2025-08-26_16h21.15.904,Stroop Task Data,2024.2.4,60.04321908869413,2025-08-26 16h25.08.223446 +0530,
BLUE,blue,C,b,5,1,1,b,1,0.5354320998303592,None,1,1,5,3,48.893390600103885,,,,,,,,,48.883138599805534,48.893390600103885,49.3929212000221,49.3929212000221,49.3929212000221,49.94398570014164,b,1,0.5354320998303592,None,,,,,0002,001,2025-08-26_16h21.15.904,Stroop Task Data,2024.2.4,60.04321908869413,2025-08-26 16h25.08.223446 +0530,
BLUE,red,I,r,6,2,1,r,1,0.5708944001235068,None,1,2,6,2,49.95923230005428,,,,,,,,,49.9449188997969,49.95923230005428,50.45870620012283,50.45870620012283,50.45870620012283,51.04267970006913,r,1,0.5708944001235068,None,,,,,0002,001,2025-08-26_16h21.15.904,Stroop Task Data,2024.2.4,60.04321908869413,2025-08-26 16h25.08.223446 +0530,
RED,red,C,r,7,3,1,r,1,0.47667310014367104,None,1,3,7,0,51.058183799963444,,,,,,,,,51.04789360007271,51.058183799963444,51.557794500142336,51.557794500142336,51.557794500142336,52.04198079975322,r,1,0.47667310014367104,None,,,,,0002,001,2025-08-26_16h21.15.904,Stroop Task Data,2024.2.4,60.04321908869413,2025-08-26 16h25.08.223446 +0530,
RED,red,C,r,8,0,2,r,1,0.4564499002881348,None,2,0,8,0,52.05743289971724,,,,,,,,,52.042922699823976,52.05743289971724,52.557004400063306,52.557004400063306,52.557004400063306,53.02457039989531,r,1,0.4564499002881348,None,,,,,0002,001,2025-08-26_16h21.15.904,Stroop Task Data,2024.2.4,60.04321908869413,2025-08-26 16h25.08.223446 +0530,
BLUE,blue,C,b,9,1,2,b,1,0.44340910017490387,None,2,1,9,3,53.039930699858814,,,,,,,,,53.0293837999925,53.039930699858814,53.539596599992365,53.539596599992365,53.539596599992365,53.99021459976211,b,1,0.44340910017490387,None,,,,,0002,001,2025-08-26_16h21.15.904,Stroop Task Data,2024.2.4,60.04321908869413,2025-08-26 16h25.08.223446 +0530,
BLUE,red,I,r,10,2,2,r,1,0.3927414999343455,None,2,2,10,2,54.00564350001514,,,,,,,,,53.99115889985114,54.00564350001514,54.50514899985865,54.50514899985865,54.50514899985865,54.90610069967806,r,1,0.3927414999343455,None,,,,,0002,001,2025-08-26_16h21.15.904,Stroop Task Data,2024.2.4,60.04321908869413,2025-08-26 16h25.08.223446 +0530,
RED,blue,I,b,11,3,2,b,1,0.6009348002262414,None,2,3,11,1,54.921458799857646,,,,,,,,,54.911369199864566,54.921458799857646,55.42110829986632,55.42110829986632,55.42110829986632,56.03855889989063,b,1,0.6009348002262414,None,,,,,0002,001,2025-08-26_16h21.15.904,Stroop Task Data,2024.2.4,60.04321908869413,2025-08-26 16h25.08.223446 +0530,
RED,blue,I,b,12,0,3,b,1,0.5891646998934448,None,3,0,12,1,56.05387309985235,,,,,,,,,56.03952839970589,56.05387309985235,56.55343639990315,56.55343639990315,56.55343639990315,57.154169499874115,b,1,0.5891646998934448,None,,,,,0002,001,2025-08-26_16h21.15.904,Stroop Task Data,2024.2.4,60.04321908869413,2025-08-26 16h25.08.223446 +0530,
BLUE,red,I,r,13,1,3,r,1,1.2045101998373866,None,3,1,13,2,57.1695342999883,,,,,,,,,57.15912219975144,57.1695342999883,57.669136699754745,57.669136699754745,57.669136699754745,58.88630039989948,r,1,1.2045101998373866,None,,,,,0002,001,2025-08-26_16h21.15.904,Stroop Task Data,2024.2.4,60.04321908869413,2025-08-26 16h25.08.223446 +0530,
BLUE,blue,C,b,14,2,3,b,1,0.5985600999556482,None,3,2,14,3,58.90155929978937,,,,,,,,,58.8873271998018,58.90155929978937,59.400955100078136,59.400955100078136,59.400955100078136,60.00204459996894,b,1,0.5985600999556482,None,,,,,0002,001,2025-08-26_16h21.15.904,Stroop Task Data,2024.2.4,60.04321908869413,2025-08-26 16h25.08.223446 +0530,
RED,red,C,r,15,3,3,r,1,0.5662121004424989,None,3,3,15,0,60.0170374000445,,,,,,,,,60.00767199974507,60.0170374000445,60.51660329988226,60.51660329988226,60.51660329988226,61.084344199858606,r,1,0.5662121004424989,None,,,,,0002,001,2025-08-26_16h21.15.904,Stroop Task Data,2024.2.4,60.04321908869413,2025-08-26 16h25.08.223446 +0530,
RED,blue,I,b,16,0,4,b,1,0.8558052997104824,None,4,0,16,1,61.099396399687976,,,,,,,,,61.08531160000712,61.099396399687976,61.599060100037605,61.599060100037605,61.599060100037605,62.46630179975182,b,1,0.8558052997104824,None,,,,,0002,001,2025-08-26_16h21.15.904,Stroop Task Data,2024.2.4,60.04321908869413,2025-08-26 16h25.08.223446 +0530,
RED,red,C,r,17,1,4,r,1,0.5625999998301268,None,4,1,17,0,62.481569699943066,,,,,,,,,62.467226000037044,62.481569699943066,62.98123489972204,62.98123489972204,62.98123489972204,63.548976900056005,r,1,0.5625999998301268,None,,,,,0002,001,2025-08-26_16h21.15.904,Stroop Task Data,2024.2.4,60.04321908869413,2025-08-26 16h25.08.223446 +0530,
BLUE,blue,C,b,18,2,4,b,1,0.46234040008857846,None,4,2,18,3,63.56410259986296,,,,,,,,,63.55371439969167,63.56410259986296,64.06371389981359,64.06371389981359,64.06371389981359,64.53119949996471,b,1,0.46234040008857846,None,,,,,0002,001,2025-08-26_16h21.15.904,Stroop Task Data,2024.2.4,60.04321908869413,2025-08-26 16h25.08.223446 +0530,
BLUE,red,I,r,19,3,4,r,1,0.44740269985049963,None,4,3,19,2,64.54657700005919,,,,,,,,,64.53211859986186,64.54657700005919,65.04601369984448,65.04601369984448,65.04601369984448,65.49695379985496,r,1,0.44740269985049963,None,,,,,0002,001,2025-08-26_16h21.15.904,Stroop Task Data,2024.2.4,60.04321908869413,2025-08-26 16h25.08.223446 +0530,
BLUE,blue,C,b,20,0,5,b,1,0.4595530997030437,None,5,0,20,3,65.51223079999909,,,,,,,,,65.4978935001418,65.51223079999909,66.01179599994794,66.01179599994794,66.01179599994794,66.4795059999451,b,1,0.4595530997030437,None,,,,,0002,001,2025-08-26_16h21.15.904,Stroop Task Data,2024.2.4,60.04321908869413,2025-08-26 16h25.08.223446 +0530,
BLUE,red,I,r,21,1,5,r,1,0.8719398002140224,None,5,1,21,2,66.4947166997008,,,,,,,,,66.48024949990213,66.4947166997008,66.9943369999528,66.9943369999528,66.9943369999528,67.87849289970472,r,1,0.8719398002140224,None,,,,,0002,001,2025-08-26_16h21.15.904,Stroop Task Data,2024.2.4,60.04321908869413,2025-08-26 16h25.08.223446 +0530,
RED,blue,I,b,22,2,5,b,1,0.5931345000863075,None,5,2,22,1,67.89337659999728,,,,,,,,,67.88925050012767,67.89337659999728,68.3929071999155,68.3929071999155,68.3929071999155,68.9940760997124,b,1,0.5931345000863075,None,,,,,0002,001,2025-08-26_16h21.15.904,Stroop Task Data,2024.2.4,60.04321908869413,2025-08-26 16h25.08.223446 +0530,
RED,red,C,r,23,3,5,r,1,0.36083919974043965,None,5,3,23,0,69.00945519981906,,,,,,,,,68.99501660000533,69.00945519981906,69.5087727997452,69.5087727997452,69.5087727997452,69.87654830003157,r,1,0.36083919974043965,None,,,,,0002,001,2025-08-26_16h21.15.904,Stroop Task Data,2024.2.4,60.04321908869413,2025-08-26 16h25.08.223446 +0530,
BLUE,red,I,r,24,0,6,r,1,0.4750092001631856,None,6,0,24,2,69.8917335998267,,,,,,,,,69.8815453001298,69.8917335998267,70.39129199972376,70.39129199972376,70.39129199972376,70.87556659989059,r,1,0.4750092001631856,None,,,,,0002,001,2025-08-26_16h21.15.904,Stroop Task Data,2024.2.4,60.04321908869413,2025-08-26 16h25.08.223446 +0530,
BLUE,blue,C,b,25,1,6,b,1,0.39824349991977215,None,6,1,25,3,70.8908540001139,,,,,,,,,70.87656199978665,70.8908540001139,71.39043230004609,71.39043230004609,71.39043230004609,71.79148569982499,b,1,0.39824349991977215,None,,,,,0002,001,2025-08-26_16h21.15.904,Stroop Task Data,2024.2.4,60.04321908869413,2025-08-26 16h25.08.223446 +0530,
RED,blue,I,b,26,2,6,r,0,0.4926641001366079,None,6,2,26,1,71.8067613998428,,,,,,,,,71.79743540007621,71.8067613998428,72.30643239989877,72.30643239989877,72.30643239989877,72.80743869999424,r,0,0.4926641001366079,None,,,,,0002,001,2025-08-26_16h21.15.904,Stroop Task Data,2024.2.4,60.04321908869413,2025-08-26 16h25.08.223446 +0530,
RED,red,C,r,27,3,6,r,1,0.8721835999749601,None,6,3,27,0,72.82257709978148,,,,,,,,,72.8084192997776,72.82257709978148,73.32223109994084,73.32223109994084,73.32223109994084,74.20627650013193,r,1,0.8721835999749601,None,,,,,0002,001,2025-08-26_16h21.15.904,Stroop Task Data,2024.2.4,60.04321908869413,2025-08-26 16h25.08.223446 +0530,
RED,blue,I,b,28,0,7,b,1,2.5539134996943176,None,7,0,28,1,74.22154260007665,,,,,,,,,74.2071843999438,74.22154260007665,74.7209268999286,74.7209268999286,74.7209268999286,77.28686170000583,b,1,2.5539134996943176,None,,,,,0002,001,2025-08-26_16h21.15.904,Stroop Task Data,2024.2.4,60.04321908869413,2025-08-26 16h25.08.223446 +0530,
RED,red,C,r,29,1,7,r,1,0.9027738999575377,None,7,1,29,0,77.30200399970636,,,,,,,,,77.28781870007515,77.30200399970636,77.80170310009271,77.80170310009271,77.80170310009271,78.71882589999586,r,1,0.9027738999575377,None,,,,,0002,001,2025-08-26_16h21.15.904,Stroop Task Data,2024.2.4,60.04321908869413,2025-08-26 16h25.08.223446 +0530,
BLUE,red,I,r,30,2,7,r,1,0.5600721999071538,None,7,2,30,2,78.73418230004609,,,,,,,,,78.72328960010782,78.73418230004609,79.23382860003039,79.23382860003039,79.23382860003039,79.8012206996791,r,1,0.5600721999071538,None,,,,,0002,001,2025-08-26_16h21.15.904,Stroop Task Data,2024.2.4,60.04321908869413,2025-08-26 16h25.08.223446 +0530,
BLUE,blue,C,b,31,3,7,b,1,0.4206543997861445,None,7,3,31,3,79.81651709973812,,,,,,,,,79.802124499809,79.81651709973812,80.31599520007148,80.31599520007148,80.31599520007148,80.75036429986358,b,1,0.4206543997861445,None,,,,,0002,001,2025-08-26_16h21.15.904,Stroop Task Data,2024.2.4,60.04321908869413,2025-08-26 16h25.08.223446 +0530,
RED,blue,I,b,32,0,8,b,1,0.7373779998160899,None,8,0,32,1,80.76559659978375,,,,,,,,,80.75554189970717,80.76559659978375,81.26526729995385,81.26526729995385,81.26526729995385,82.01577960001305,b,1,0.7373779998160899,None,,,,,0002,001,2025-08-26_16h21.15.904,Stroop Task Data,2024.2.4,60.04321908869413,2025-08-26 16h25.08.223446 +0530,
BLUE,blue,C,b,33,1,8,b,1,0.34351160004734993,None,8,1,33,3,82.03119569970295,,,,,,,,,82.02093539992347,82.03119569970295,82.53076309990138,82.53076309990138,82.53076309990138,82.88173499982804,b,1,0.34351160004734993,None,,,,,0002,001,2025-08-26_16h21.15.904,Stroop Task Data,2024.2.4,60.04321908869413,2025-08-26 16h25.08.223446 +0530,
BLUE,red,I,r,34,2,8,r,1,0.3650083998218179,None,8,2,34,2,82.89712629979476,,,,,,,,,82.88266139989719,82.89712629979476,83.3967321999371,83.3967321999371,83.3967321999371,83.7644957001321,r,1,0.3650083998218179,None,,,,,0002,001,2025-08-26_16h21.15.904,Stroop Task Data,2024.2.4,60.04321908869413,2025-08-26 16h25.08.223446 +0530,
RED,red,C,r,35,3,8,r,1,0.47077729972079396,None,8,3,35,0,83.77977810008451,,,,,,,,,83.77039089985192,83.77977810008451,84.27937699994072,84.27937699994072,84.27937699994072,84.76350730005652,r,1,0.47077729972079396,None,,,,,0002,001,2025-08-26_16h21.15.904,Stroop Task Data,2024.2.4,60.04321908869413,2025-08-26 16h25.08.223446 +0530,
RED,blue,I,b,36,0,9,b,1,1.2929871999658644,None,9,0,36,1,84.77878759987652,,,,,,,,,84.76445049978793,84.77878759987652,85.27838489972055,85.27838489972055,85.27838489972055,86.57877760007977,b,1,1.2929871999658644,None,,,,,0002,001,2025-08-26_16h21.15.904,Stroop Task Data,2024.2.4,60.04321908869413,2025-08-26 16h25.08.223446 +0530,
RED,red,C,r,37,1,9,r,1,0.849140000063926,None,9,1,37,0,86.59381640003994,,,,,,,,,86.57970459992066,86.59381640003994,87.09352270001546,87.09352270001546,87.09352270001546,87.94445890001953,r,1,0.849140000063926,None,,,,,0002,001,2025-08-26_16h21.15.904,Stroop Task Data,2024.2.4,60.04321908869413,2025-08-26 16h25.08.223446 +0530,
BLUE,blue,C,b,38,2,9,b,1,0.4443501001223922,None,9,2,38,3,87.95938519993797,,,,,,,,,87.94954450009391,87.95938519993797,88.4590712999925,88.4590712999925,88.4590712999925,88.91000579996035,b,1,0.4443501001223922,None,,,,,0002,001,2025-08-26_16h21.15.904,Stroop Task Data,2024.2.4,60.04321908869413,2025-08-26 16h25.08.223446 +0530,
BLUE,red,I,r,39,3,9,r,1,0.46731159975752234,None,9,3,39,2,88.92531780013815,,,,,,,,,88.91091990005225,88.92531780013815,89.42495250003412,89.42495250003412,89.42495250003412,89.90895469998941,r,1,0.46731159975752234,None,,,,,0002,001,2025-08-26_16h21.15.904,Stroop Task Data,2024.2.4,60.04321908869413,2025-08-26 16h25.08.223446 +0530,
BLUE,blue,C,b,40,0,10,b,1,0.5036822999827564,None,10,0,40,3,89.92439589975402,,,,,,,,,89.90988310007378,89.92439589975402,90.4240096998401,90.4240096998401,90.4240096998401,90.94129829993472,b,1,0.5036822999827564,None,,,,,0002,001,2025-08-26_16h21.15.904,Stroop Task Data,2024.2.4,60.04321908869413,2025-08-26 16h25.08.223446 +0530,
RED,blue,I,b,41,1,10,b,1,0.8500838000327349,None,10,1,41,1,90.9567180997692,,,,,,,,,90.94661330012605,90.9567180997692,91.45629719970748,91.45629719970748,91.45629719970748,92.32351240003482,b,1,0.8500838000327349,None,,,,,0002,001,2025-08-26_16h21.15.904,Stroop Task Data,2024.2.4,60.04321908869413,2025-08-26 16h25.08.223446 +0530,
BLUE,red,I,r,42,2,10,b,0,0.2832798999734223,None,10,2,42,2,92.33887129975483,,,,,,,,,92.32929559983313,92.33887129975483,92.83848029980436,92.83848029980436,92.83848029980436,93.12338500004262,b,0,0.2832798999734223,None,,,,,0002,001,2025-08-26_16h21.15.904,Stroop Task Data,2024.2.4,60.04321908869413,2025-08-26 16h25.08.223446 +0530,
RED,red,C,r,43,3,10,r,1,0.5118268001824617,None,10,3,43,0,93.1382272997871,,,,,,,,,93.12892560008913,93.1382272997871,93.63794500008225,93.63794500008225,93.63794500008225,94.15526749985293,r,1,0.5118268001824617,None,,,,,0002,001,2025-08-26_16h21.15.904,Stroop Task Data,2024.2.4,60.04321908869413,2025-08-26 16h25.08.223446 +0530,
RED,red,C,r,44,0,11,r,1,0.5361218000762165,None,11,0,44,0,94.17073010001332,,,,,,,,,94.15620240010321,94.17073010001332,94.67041909974068,94.67041909974068,94.67041909974068,95.2211627997458,r,1,0.5361218000762165,None,,,,,0002,001,2025-08-26_16h21.15.904,Stroop Task Data,2024.2.4,60.04321908869413,2025-08-26 16h25.08.223446 +0530,
RED,blue,I,b,45,1,11,b,1,0.8498999001458287,None,11,1,45,1,95.23636419977993,,,,,,,,,95.22209239983931,95.23636419977993,95.73587459977716,95.73587459977716,95.73587459977716,96.60305880010128,b,1,0.8498999001458287,None,,,,,0002,001,2025-08-26_16h21.15.904,Stroop Task Data,2024.2.4,60.04321908869413,2025-08-26 16h25.08.223446 +0530,
BLUE,blue,C,b,46,2,11,b,1,0.30352990003302693,None,11,2,46,3,96.61840609973297,,,,,,,,,96.60869630007073,96.61840609973297,97.11806030012667,97.11806030012667,97.11806030012667,97.43565180012956,b,1,0.30352990003302693,None,,,,,0002,001,2025-08-26_16h21.15.904,Stroop Task Data,2024.2.4,60.04321908869413,2025-08-26 16h25.08.223446 +0530,
BLUE,red,I,r,47,3,11,r,1,0.4800197998993099,None,11,3,47,2,97.4511194000952,,,,,,,,,97.43659059982747,97.4511194000952,97.950716199819,97.950716199819,97.950716199819,98.4350636000745,r,1,0.4800197998993099,None,,,,,0002,001,2025-08-26_16h21.15.904,Stroop Task Data,2024.2.4,60.04321908869413,2025-08-26 16h25.08.223446 +0530,
RED,blue,I,b,48,0,12,r,0,0.3166001997888088,None,12,0,48,1,98.45031529990956,,,,,,,,,98.44107990013435,98.45031529990956,98.94992299983278,98.94992299983278,98.94992299983278,99.26825259998441,r,0,0.3166001997888088,None,,,,,0002,001,2025-08-26_16h21.15.904,Stroop Task Data,2024.2.4,60.04321908869413,2025-08-26 16h25.08.223446 +0530,
BLUE,red,I,r,49,1,12,r,1,0.9570062002167106,None,12,1,49,2,99.28294559987262,,,,,,,,,99.2728881998919,99.28294559987262,99.78260229993612,99.78260229993612,99.78260229993612,100.7494268999435,r,1,0.9570062002167106,None,,,,,0002,001,2025-08-26_16h21.15.904,Stroop Task Data,2024.2.4,60.04321908869413,2025-08-26 16h25.08.223446 +0530,
BLUE,blue,C,b,50,2,12,b,1,0.43353249970823526,None,12,2,50,3,100.76487769978121,,,,,,,,,100.75031000003219,100.76487769978121,101.26451550005004,101.26451550005004,101.26451550005004,101.71510699996725,b,1,0.43353249970823526,None,,,,,0002,001,2025-08-26_16h21.15.904,Stroop Task Data,2024.2.4,60.04321908869413,2025-08-26 16h25.08.223446 +0530,
RED,red,C,r,51,3,12,r,1,0.8604648001492023,None,12,3,51,0,101.73064620001242,,,,,,,,,101.72049929993227,101.73064620001242,102.2302081999369,102.2302081999369,102.2302081999369,103.09760530013591,r,1,0.8604648001492023,None,,,,,0002,001,2025-08-26_16h21.15.904,Stroop Task Data,2024.2.4,60.04321908869413,2025-08-26 16h25.08.223446 +0530,
RED,blue,I,b,52,0,13,b,1,0.6199382999911904,None,13,0,52,1,103.11282159993425,,,,,,,,,103.09847179986537,103.11282159993425,103.61240059975535,103.61240059975535,103.61240059975535,104.2466486999765,b,1,0.6199382999911904,None,,,,,0002,001,2025-08-26_16h21.15.904,Stroop Task Data,2024.2.4,60.04321908869413,2025-08-26 16h25.08.223446 +0530,
BLUE,blue,C,b,53,1,13,b,1,0.3918401999399066,None,13,1,53,3,104.26193960011005,,,,,,,,,104.25110939983279,104.26193960011005,104.76156899984926,104.76156899984926,104.76156899984926,105.16235210001469,b,1,0.3918401999399066,None,,,,,0002,001,2025-08-26_16h21.15.904,Stroop Task Data,2024.2.4,60.04321908869413,2025-08-26 16h25.08.223446 +0530,
BLUE,red,I,r,54,2,13,r,1,0.4372840002179146,None,13,2,54,2,105.17765629990026,,,,,,,,,105.16326829977334,105.17765629990026,105.67722170008346,105.67722170008346,105.67722170008346,106.12841189978644,r,1,0.4372840002179146,None,,,,,0002,001,2025-08-26_16h21.15.904,Stroop Task Data,2024.2.4,60.04321908869413,2025-08-26 16h25.08.223446 +0530,
RED,red,C,r,55,3,13,r,1,0.36080989986658096,None,13,3,55,0,106.14344209991395,,,,,,,,,106.13351969979703,106.14344209991395,106.64312239969149,106.64312239969149,106.64312239969149,107.01096409978345,r,1,0.36080989986658096,None,,,,,0002,001,2025-08-26_16h21.15.904,Stroop Task Data,2024.2.4,60.04321908869413,2025-08-26 16h25.08.223446 +0530,
RED,red,C,r,56,0,14,r,1,0.3157572001218796,None,14,0,56,0,107.0260266000405,,,,,,,,,107.01187869999558,107.0260266000405,107.52574069984257,107.52574069984257,107.52574069984257,107.843412599992,r,1,0.3157572001218796,None,,,,,0002,001,2025-08-26_16h21.15.904,Stroop Task Data,2024.2.4,60.04321908869413,2025-08-26 16h25.08.223446 +0530,
BLUE,red,I,r,57,1,14,r,1,0.3413871000520885,None,14,1,57,2,107.85868139984086,,,,,,,,,107.84818399976939,107.85868139984086,108.35830090008676,108.35830090008676,108.35830090008676,108.70938959997147,r,1,0.3413871000520885,None,,,,,0002,001,2025-08-26_16h21.15.904,Stroop Task Data,2024.2.4,60.04321908869413,2025-08-26 16h25.08.223446 +0530,
RED,blue,I,b,58,2,14,b,1,0.2970512001775205,None,14,2,58,1,108.72465669969097,,,,,,,,,108.71460339985788,108.72465669969097,109.2242522998713,109.2242522998713,109.2242522998713,109.52562560001388,b,1,0.2970512001775205,None,,,,,0002,001,2025-08-26_16h21.15.904,Stroop Task Data,2024.2.4,60.04321908869413,2025-08-26 16h25.08.223446 +0530,
BLUE,blue,C,b,59,3,14,b,1,0.4496459998190403,None,14,3,59,3,109.54068440012634,,,,,,,,,109.53056109976023,109.54068440012634,110.04028589976951,110.04028589976951,110.04028589976951,110.49144939985126,b,1,0.4496459998190403,None,,,,,0002,001,2025-08-26_16h21.15.904,Stroop Task Data,2024.2.4,60.04321908869413,2025-08-26 16h25.08.223446 +0530,
BLUE,blue,C,b,60,0,15,b,1,0.29357129987329245,None,15,0,60,3,110.50643880013376,,,,,,,,,110.49240210000426,110.50643880013376,111.00594669999555,111.00594669999555,111.00594669999555,111.3073737998493,b,1,0.29357129987329245,None,,,,,0002,001,2025-08-26_16h21.15.904,Stroop Task Data,2024.2.4,60.04321908869413,2025-08-26 16h25.08.223446 +0530,
RED,blue,I,b,61,1,15,b,1,0.365317199844867,None,15,1,61,1,111.32226529996842,,,,,,,,,111.31241980008781,111.32226529996842,111.82191730011255,111.82191730011255,111.82191730011255,112.1897096997127,b,1,0.365317199844867,None,,,,,0002,001,2025-08-26_16h21.15.904,Stroop Task Data,2024.2.4,60.04321908869413,2025-08-26 16h25.08.223446 +0530,
BLUE,red,I,r,62,2,15,r,1,0.3348002000711858,None,15,2,62,2,112.20486469985917,,,,,,,,,112.19476570002735,112.20486469985917,112.70444609969854,112.70444609969854,112.70444609969854,113.0554208997637,r,1,0.3348002000711858,None,,,,,0002,001,2025-08-26_16h21.15.904,Stroop Task Data,2024.2.4,60.04321908869413,2025-08-26 16h25.08.223446 +0530,
RED,red,C,r,63,3,15,r,1,0.24615000002086163,None,15,3,63,0,113.07079589972273,,,,,,,,,113.0609540999867,113.07079589972273,113.57042569993064,113.57042569993064,113.57042569993064,113.82158129988238,r,1,0.24615000002086163,None,,,,,0002,001,2025-08-26_16h21.15.904,Stroop Task Data,2024.2.4,60.04321908869413,2025-08-26 16h25.08.223446 +0530,
BLUE,red,I,r,64,0,16,r,1,0.23943549999967217,None,16,0,64,2,113.83692710008472,,,,,,,,,113.8262521000579,113.83692710008472,114.33677669987082,114.33677669987082,114.33677669987082,114.58774759992957,r,1,0.23943549999967217,None,,,,,0002,001,2025-08-26_16h21.15.904,Stroop Task Data,2024.2.4,60.04321908869413,2025-08-26 16h25.08.223446 +0530,
RED,red,C,r,65,1,16,r,1,0.5263994000852108,None,16,1,65,0,114.60293189994991,,,,,,,,,114.59347030008212,114.60293189994991,115.10255469987169,115.10255469987169,115.10255469987169,115.63714879984036,r,1,0.5263994000852108,None,,,,,0002,001,2025-08-26_16h21.15.904,Stroop Task Data,2024.2.4,60.04321908869413,2025-08-26 16h25.08.223446 +0530,
RED,blue,I,b,66,2,16,b,1,1.0787606001831591,None,16,2,66,1,115.6518228999339,,,,,,,,,115.63821689970791,115.6518228999339,116.15140549978241,116.15140549978241,116.15140549978241,117.2349926000461,b,1,1.0787606001831591,None,,,,,0002,001,2025-08-26_16h21.15.904,Stroop Task Data,2024.2.4,60.04321908869413,2025-08-26 16h25.08.223446 +0530,
BLUE,blue,C,b,67,3,16,b,1,0.7451786999590695,None,16,3,67,3,117.25047180010006,,,,,,,,,117.23977060010657,117.25047180010006,117.75009729992598,117.75009729992598,117.75009729992598,118.5008290996775,b,1,0.7451786999590695,None,,,,,0002,001,2025-08-26_16h21.15.904,Stroop Task Data,2024.2.4,60.04321908869413,2025-08-26 16h25.08.223446 +0530,
BLUE,blue,C,b,68,0,17,b,1,0.4929389003664255,None,17,0,68,3,118.51611059997231,,,,,,,,,118.50171520002186,118.51611059997231,119.01571019971743,119.01571019971743,119.01571019971743,119.5167823000811,b,1,0.4929389003664255,None,,,,,0002,001,2025-08-26_16h21.15.904,Stroop Task Data,2024.2.4,60.04321908869413,2025-08-26 16h25.08.223446 +0530,
BLUE,red,I,r,69,1,17,b,0,0.27282659988850355,None,17,1,69,2,119.531958299689,,,,,,,,,119.51783749973401,119.531958299689,120.03159220004454,120.03159220004454,120.03159220004454,120.31578700011596,b,0,0.27282659988850355,None,,,,,0002,001,2025-08-26_16h21.15.904,Stroop Task Data,2024.2.4,60.04321908869413,2025-08-26 16h25.08.223446 +0530,
RED,red,C,r,70,2,17,r,1,0.47565170004963875,None,17,2,70,0,120.33110640011728,,,,,,,,,120.32118889968842,120.33110640011728,120.83085109991953,120.83085109991953,120.83085109991953,121.31491529988125,r,1,0.47565170004963875,None,,,,,0002,001,2025-08-26_16h21.15.904,Stroop Task Data,2024.2.4,60.04321908869413,2025-08-26 16h25.08.223446 +0530,
RED,blue,I,b,71,3,17,r,0,0.2596064996905625,None,17,3,71,1,121.33021629974246,,,,,,,,,121.31589590013027,121.33021629974246,121.82984679983929,121.82984679983929,121.82984679983929,122.09791299980134,r,0,0.2596064996905625,None,,,,,0002,001,2025-08-26_16h21.15.904,Stroop Task Data,2024.2.4,60.04321908869413,2025-08-26 16h25.08.223446 +0530,
BLUE,red,I,r,72,0,18,b,0,2.1045479997992516,None,18,0,72,2,122.11288819974288,,,,,,,,,122.10245839972049,122.11288819974288,122.61246509989724,122.61246509989724,122.61246509989724,124.73002110002562,b,0,2.1045479997992516,None,,,,,0002,001,2025-08-26_16h21.15.904,Stroop Task Data,2024.2.4,60.04321908869413,2025-08-26 16h25.08.223446 +0530,
RED,blue,I,b,73,1,18,b,1,1.278672699816525,None,18,1,73,1,124.74410380003974,,,,,,,,,124.73559209983796,124.74410380003974,125.24372399970889,125.24372399970889,125.24372399970889,126.5274108001031,b,1,1.278672699816525,None,,,,,0002,001,2025-08-26_16h21.15.904,Stroop Task Data,2024.2.4,60.04321908869413,2025-08-26 16h25.08.223446 +0530,
BLUE,blue,C,b,74,2,18,b,1,0.42434490006417036,None,18,2,74,3,126.54236580012366,,,,,,,,,126.53225059993565,126.54236580012366,127.04188970010728,127.04188970010728,127.04188970010728,127.47613589977846,b,1,0.42434490006417036,None,,,,,0002,001,2025-08-26_16h21.15.904,Stroop Task Data,2024.2.4,60.04321908869413,2025-08-26 16h25.08.223446 +0530,
RED,red,C,r,75,3,18,r,1,0.4909582999534905,None,18,3,75,0,127.49109699996188,,,,,,,,,127.48126889998093,127.49109699996188,127.9906697999686,127.9906697999686,127.9906697999686,128.4920621998608,r,1,0.4909582999534905,None,,,,,0002,001,2025-08-26_16h21.15.904,Stroop Task Data,2024.2.4,60.04321908869413,2025-08-26 16h25.08.223446 +0530,
BLUE,blue,C,b,76,0,19,b,1,0.4756756001152098,None,19,0,76,3,128.50730079971254,,,,,,,,,128.49626499973238,128.50730079971254,129.00655469996855,129.00655469996855,129.00655469996855,129.49139019986615,b,1,0.4756756001152098,None,,,,,0002,001,2025-08-26_16h21.15.904,Stroop Task Data,2024.2.4,60.04321908869413,2025-08-26 16h25.08.223446 +0530,
RED,red,C,r,77,1,19,r,1,0.6445523998700082,None,19,1,77,0,129.5062258001417,,,,,,,,,129.49649860011414,129.5062258001417,130.00574379973114,130.00574379973114,130.00574379973114,130.6567675000988,r,1,0.6445523998700082,None,,,,,0002,001,2025-08-26_16h21.15.904,Stroop Task Data,2024.2.4,60.04321908869413,2025-08-26 16h25.08.223446 +0530,
RED,blue,I,b,78,2,19,b,1,0.577864000108093,None,19,2,78,1,130.67207770003006,,,,,,,,,130.65781700005755,130.67207770003006,131.17166659981012,131.17166659981012,131.17166659981012,131.75606509996578,b,1,0.577864000108093,None,,,,,0002,001,2025-08-26_16h21.15.904,Stroop Task Data,2024.2.4,60.04321908869413,2025-08-26 16h25.08.223446 +0530,
BLUE,red,I,r,79,3,19,r,1,0.4714175001718104,None,19,3,79,2,131.7711065998301,,,,,,,,,131.76202289992943,131.7711065998301,132.27025549998507,132.27025549998507,132.27025549998507,132.75508169969544,r,1,0.4714175001718104,None,,,,,0002,001,2025-08-26_16h21.15.904,Stroop Task Data,2024.2.4,60.04321908869413,2025-08-26 16h25.08.223446 +0530,
BLUE,blue,C,b,80,0,20,b,1,0.5481203002855182,None,20,0,80,3,132.7697668997571,,,,,,,,,132.75604779971763,132.7697668997571,133.2699045999907,133.2699045999907,133.2699045999907,133.82096369983628,b,1,0.5481203002855182,None,,,,,0002,001,2025-08-26_16h21.15.904,Stroop Task Data,2024.2.4,60.04321908869413,2025-08-26 16h25.08.223446 +0530,
BLUE,red,I,r,81,1,20,r,1,0.9420436001382768,None,20,1,81,2,133.83607729990035,,,,,,,,,133.82188670011237,133.83607729990035,134.3357766997069,134.3357766997069,134.3357766997069,135.28606389975175,r,1,0.9420436001382768,None,,,,,0002,001,2025-08-26_16h21.15.904,Stroop Task Data,2024.2.4,60.04321908869413,2025-08-26 16h25.08.223446 +0530,
RED,blue,I,b,82,2,20,b,1,0.38066859962418675,None,20,2,82,1,135.3015943998471,,,,,,,,,135.29175119986758,135.3015943998471,135.8010561997071,135.8010561997071,135.8010561997071,136.18536829994991,b,1,0.38066859962418675,None,,,,,0002,001,2025-08-26_16h21.15.904,Stroop Task Data,2024.2.4,60.04321908869413,2025-08-26 16h25.08.223446 +0530,
RED,red,C,r,83,3,20,r,1,0.7975977002643049,None,20,3,83,0,136.20069119986147,,,,,,,,,136.18645730009302,136.20069119986147,136.70029779989272,136.70029779989272,136.70029779989272,137.500840799883,r,1,0.7975977002643049,None,,,,,0002,001,2025-08-26_16h21.15.904,Stroop Task Data,2024.2.4,60.04321908869413,2025-08-26 16h25.08.223446 +0530,
RED,red,C,r,84,0,21,r,1,0.3878874001093209,None,21,0,84,0,137.51615240005776,,,,,,,,,137.50173689983785,137.51615240005776,138.0157170998864,138.0157170998864,138.0157170998864,138.41671549994498,r,1,0.3878874001093209,None,,,,,0002,001,2025-08-26_16h21.15.904,Stroop Task Data,2024.2.4,60.04321908869413,2025-08-26 16h25.08.223446 +0530,
BLUE,blue,C,b,85,1,21,b,1,0.5189029001630843,None,21,1,85,3,138.43202950013801,,,,,,,,,138.42150929989293,138.43202950013801,138.93164379987866,138.93164379987866,138.93164379987866,139.4659897000529,b,1,0.5189029001630843,None,,,,,0002,001,2025-08-26_16h21.15.904,Stroop Task Data,2024.2.4,60.04321908869413,2025-08-26 16h25.08.223446 +0530,
RED,blue,I,b,86,2,21,b,1,0.41524129966273904,None,21,2,86,1,139.48117899987847,,,,,,,,,139.47130460012704,139.48117899987847,139.9808243997395,139.9808243997395,139.9808243997395,140.39859869983047,b,1,0.41524129966273904,None,,,,,0002,001,2025-08-26_16h21.15.904,Stroop Task Data,2024.2.4,60.04321908869413,2025-08-26 16h25.08.223446 +0530,
BLUE,red,I,r,87,3,21,r,1,0.40746650006622076,None,21,3,87,2,140.4138126997277,,,,,,,,,140.40383329987526,140.4138126997277,140.91328979982063,140.91328979982063,140.91328979982063,141.33094140002504,r,1,0.40746650006622076,None,,,,,0002,001,2025-08-26_16h21.15.904,Stroop Task Data,2024.2.4,60.04321908869413,2025-08-26 16h25.08.223446 +0530,
RED,red,C,r,88,0,22,r,1,0.4057991001754999,None,22,0,88,0,141.34590859990567,,,,,,,,,141.3361177998595,141.34590859990567,141.8452292000875,141.8452292000875,141.8452292000875,142.26332989986986,r,1,0.4057991001754999,None,,,,,0002,001,2025-08-26_16h21.15.904,Stroop Task Data,2024.2.4,60.04321908869413,2025-08-26 16h25.08.223446 +0530,
RED,blue,I,b,89,1,22,b,1,0.4062577001750469,None,22,1,89,1,142.27868629992008,,,,,,,,,142.26424920000136,142.27868629992008,142.7782048000954,142.7782048000954,142.7782048000954,143.195807099808,b,1,0.4062577001750469,None,,,,,0002,001,2025-08-26_16h21.15.904,Stroop Task Data,2024.2.4,60.04321908869413,2025-08-26 16h25.08.223446 +0530,
BLUE,blue,C,b,90,2,22,b,1,0.4323916998691857,None,22,2,90,3,143.21116479998454,,,,,,,,,143.20039010001346,143.21116479998454,143.71082150004804,143.71082150004804,143.71082150004804,144.14553530002013,b,1,0.4323916998691857,None,,,,,0002,001,2025-08-26_16h21.15.904,Stroop Task Data,2024.2.4,60.04321908869413,2025-08-26 16h25.08.223446 +0530,
BLUE,red,I,r,91,3,22,r,1,0.5074090999551117,None,22,3,91,2,144.16040749987587,,,,,,,,,144.14655339997262,144.16040749987587,144.66000819997862,144.66000819997862,144.66000819997862,145.17788989981636,r,1,0.5074090999551117,None,,,,,0002,001,2025-08-26_16h21.15.904,Stroop Task Data,2024.2.4,60.04321908869413,2025-08-26 16h25.08.223446 +0530,
BLUE,blue,C,b,92,0,23,b,1,0.46775890002027154,None,23,0,92,3,145.19292109971866,,,,,,,,,145.17881170008332,145.19292109971866,145.6926055001095,145.6926055001095,145.6926055001095,146.17670299997553,b,1,0.46775890002027154,None,,,,,0002,001,2025-08-26_16h21.15.904,Stroop Task Data,2024.2.4,60.04321908869413,2025-08-26 16h25.08.223446 +0530,
RED,blue,I,b,93,1,23,b,1,0.4459336996078491,None,23,1,93,1,146.1920309998095,,,,,,,,,146.18220779998228,146.1920309998095,146.69150860002264,146.69150860002264,146.69150860002264,147.1427515000105,b,1,0.4459336996078491,None,,,,,0002,001,2025-08-26_16h21.15.904,Stroop Task Data,2024.2.4,60.04321908869413,2025-08-26 16h25.08.223446 +0530,
BLUE,red,I,r,94,2,23,r,1,0.7061981000006199,None,23,2,94,2,147.1580509999767,,,,,,,,,147.14874139986932,147.1580509999767,147.6570306001231,147.6570306001231,147.6570306001231,148.3747939998284,r,1,0.7061981000006199,None,,,,,0002,001,2025-08-26_16h21.15.904,Stroop Task Data,2024.2.4,60.04321908869413,2025-08-26 16h25.08.223446 +0530,
RED,red,C,r,95,3,23,r,1,0.42775889998301864,None,23,3,95,0,148.39004259975627,,,,,,,,,148.3802628996782,148.39004259975627,148.88967050006613,148.88967050006613,148.88967050006613,149.32410319987684,r,1,0.42775889998301864,None,,,,,0002,001,2025-08-26_16h21.15.904,Stroop Task Data,2024.2.4,60.04321908869413,2025-08-26 16h25.08.223446 +0530,
BLUE,blue,C,b,96,0,24,b,1,0.4701971998438239,None,24,0,96,3,149.3393155001104,,,,,,,,,149.32908910000697,149.3393155001104,149.83905409974977,149.83905409974977,149.83905409974977,150.3232116997242,b,1,0.4701971998438239,None,,,,,0002,001,2025-08-26_16h21.15.904,Stroop Task Data,2024.2.4,60.04321908869413,2025-08-26 16h25.08.223446 +0530,
BLUE,red,I,r,97,1,24,r,1,0.4619700997136533,None,24,1,97,2,150.33853300008923,,,,,,,,,150.32397940009832,150.33853300008923,150.83822399983183,150.83822399983183,150.83822399983183,151.3055067998357,r,1,0.4619700997136533,None,,,,,0002,001,2025-08-26_16h21.15.904,Stroop Task Data,2024.2.4,60.04321908869413,2025-08-26 16h25.08.223446 +0530,
RED,red,C,r,98,2,24,r,1,0.44257429987192154,None,24,2,98,0,151.32076120004058,,,,,,,,,151.31164849968627,151.32076120004058,151.8203362999484,151.8203362999484,151.8203362999484,152.27141929976642,r,1,0.44257429987192154,None,,,,,0002,001,2025-08-26_16h21.15.904,Stroop Task Data,2024.2.4,60.04321908869413,2025-08-26 16h25.08.223446 +0530,
RED,blue,I,b,99,3,24,r,0,0.27917469991371036,None,24,3,99,1,152.28658870002255,,,,,,,,,152.27226739982143,152.28658870002255,152.78617070009932,152.78617070009932,152.78617070009932,153.0704985000193,r,0,0.27917469991371036,None,,,,,0002,001,2025-08-26_16h21.15.904,Stroop Task Data,2024.2.4,60.04321908869413,2025-08-26 16h25.08.223446 +0530,
BLUE,red,I,r,100,0,25,r,1,0.7961029997095466,None,25,0,100,2,153.08587840013206,,,,,,,,,153.075224599801,153.08587840013206,153.5854964000173,153.5854964000173,153.5854964000173,154.38616270013154,r,1,0.7961029997095466,None,,,,,0002,001,2025-08-26_16h21.15.904,Stroop Task Data,2024.2.4,60.04321908869413,2025-08-26 16h25.08.223446 +0530,
BLUE,blue,C,b,101,1,25,b,1,0.4400406996719539,None,25,1,101,3,154.40151409991086,,,,,,,,,154.3870661999099,154.40151409991086,154.90108209988102,154.90108209988102,154.90108209988102,155.35209849989042,b,1,0.4400406996719539,None,,,,,0002,001,2025-08-26_16h21.15.904,Stroop Task Data,2024.2.4,60.04321908869413,2025-08-26 16h25.08.223446 +0530,
RED,red,C,r,102,2,25,r,1,0.4406791999936104,None,25,2,102,0,155.36739689996466,,,,,,,,,155.35788200004026,155.36739689996466,155.86707070004195,155.86707070004195,155.86707070004195,156.317902199924,r,1,0.4406791999936104,None,,,,,0002,001,2025-08-26_16h21.15.904,Stroop Task Data,2024.2.4,60.04321908869413,2025-08-26 16h25.08.223446 +0530,
RED,blue,I,b,103,3,25,b,1,0.3860641997307539,None,25,3,103,1,156.33307870011777,,,,,,,,,156.31892819982022,156.33307870011777,156.8326047998853,156.8326047998853,156.8326047998853,157.23364549968392,b,1,0.3860641997307539,None,,,,,0002,001,2025-08-26_16h21.15.904,Stroop Task Data,2024.2.4,60.04321908869413,2025-08-26 16h25.08.223446 +0530,
RED,red,C,r,104,0,26,r,1,0.41032740008085966,None,26,0,104,0,157.24897939991206,,,,,,,,,157.2346729999408,157.24897939991206,157.74850289989263,157.74850289989263,157.74850289989263,158.16634120000526,r,1,0.41032740008085966,None,,,,,0002,001,2025-08-26_16h21.15.904,Stroop Task Data,2024.2.4,60.04321908869413,2025-08-26 16h25.08.223446 +0530,
RED,blue,I,b,105,1,26,b,1,0.5584080996923149,None,26,1,105,1,158.18141449987888,,,,,,,,,158.16735439980403,158.18141449987888,158.68104110006243,158.68104110006243,158.68104110006243,159.24853010009974,b,1,0.5584080996923149,None,,,,,0002,001,2025-08-26_16h21.15.904,Stroop Task Data,2024.2.4,60.04321908869413,2025-08-26 16h25.08.223446 +0530,
BLUE,blue,C,b,106,2,26,b,1,0.4158809999935329,None,26,2,106,3,159.26388090010732,,,,,,,,,159.2533052000217,159.26388090010732,159.76351530011743,159.76351530011743,159.76351530011743,160.18128779996186,b,1,0.4158809999935329,None,,,,,0002,001,2025-08-26_16h21.15.904,Stroop Task Data,2024.2.4,60.04321908869413,2025-08-26 16h25.08.223446 +0530,
BLUE,red,I,r,107,3,26,r,1,0.46661469992250204,None,26,3,107,2,160.19648299971595,,,,,,,,,160.1822581999004,160.19648299971595,160.69617530005053,160.69617530005053,160.69617530005053,161.18008989980444,r,1,0.46661469992250204,None,,,,,0002,001,2025-08-26_16h21.15.904,Stroop Task Data,2024.2.4,60.04321908869413,2025-08-26 16h25.08.223446 +0530,
BLUE,red,I,r,108,0,27,r,1,0.39993569999933243,None,27,0,108,2,161.1955661000684,,,,,,,,,161.18109919968992,161.1955661000684,161.69511329988018,161.69511329988018,161.69511329988018,162.0965423998423,r,1,0.39993569999933243,None,,,,,0002,001,2025-08-26_16h21.15.904,Stroop Task Data,2024.2.4,60.04321908869413,2025-08-26 16h25.08.223446 +0530,
RED,red,C,r,109,1,27,r,1,0.4044234002940357,None,27,1,109,0,162.11131870001554,,,,,,,,,162.10195720009506,162.11131870001554,162.61096710013226,162.61096710013226,162.61096710013226,163.02867599995807,r,1,0.4044234002940357,None,,,,,0002,001,2025-08-26_16h21.15.904,Stroop Task Data,2024.2.4,60.04321908869413,2025-08-26 16h25.08.223446 +0530,
RED,blue,I,b,110,2,27,b,1,0.5591727998107672,None,27,2,110,1,163.0438617998734,,,,,,,,,163.02960349991918,163.0438617998734,163.54349080007523,163.54349080007523,163.54349080007523,164.11093099974096,b,1,0.5591727998107672,None,,,,,0002,001,2025-08-26_16h21.15.904,Stroop Task Data,2024.2.4,60.04321908869413,2025-08-26 16h25.08.223446 +0530,
BLUE,blue,C,b,111,3,27,b,1,0.8935555000789464,None,27,3,111,3,164.12634339975193,,,,,,,,,164.1155794998631,164.12634339975193,164.62592560006306,164.62592560006306,164.62592560006306,165.5269059999846,b,1,0.8935555000789464,None,,,,,0002,001,2025-08-26_16h21.15.904,Stroop Task Data,2024.2.4,60.04321908869413,2025-08-26 16h25.08.223446 +0530,
BLUE,blue,C,b,112,0,28,b,1,0.35982570005580783,None,28,0,112,3,165.54185359971598,,,,,,,,,165.52786369994283,165.54185359971598,166.0415722001344,166.0415722001344,166.0415722001344,166.40896030003205,b,1,0.35982570005580783,None,,,,,0002,001,2025-08-26_16h21.15.904,Stroop Task Data,2024.2.4,60.04321908869413,2025-08-26 16h25.08.223446 +0530,
BLUE,red,I,r,113,1,28,r,1,0.49884770018979907,None,28,1,113,2,166.42391669983044,,,,,,,,,166.40987870004028,166.42391669983044,166.92337600002065,166.92337600002065,166.92337600002065,167.42488770000637,r,1,0.49884770018979907,None,,,,,0002,001,2025-08-26_16h21.15.904,Stroop Task Data,2024.2.4,60.04321908869413,2025-08-26 16h25.08.223446 +0530,
RED,blue,I,b,114,2,28,b,1,0.5812794002704322,None,28,2,114,1,167.44005730003119,,,,,,,,,167.43087479984388,167.44005730003119,167.93962229974568,167.93962229974568,167.93962229974568,168.5237829000689,b,1,0.5812794002704322,None,,,,,0002,001,2025-08-26_16h21.15.904,Stroop Task Data,2024.2.4,60.04321908869413,2025-08-26 16h25.08.223446 +0530,
RED,red,C,r,115,3,28,r,1,0.47758130030706525,None,28,3,115,0,168.53906349977478,,,,,,,,,168.52471779985353,168.53906349977478,169.03876999998465,169.03876999998465,169.03876999998465,169.52301590004936,r,1,0.47758130030706525,None,,,,,0002,001,2025-08-26_16h21.15.904,Stroop Task Data,2024.2.4,60.04321908869413,2025-08-26 16h25.08.223446 +0530,
RED,blue,I,b,116,0,29,b,1,0.4697267999872565,None,29,0,116,1,169.5383242997341,,,,,,,,,169.52388649992645,169.5383242997341,170.03793150000274,170.03793150000274,170.03793150000274,170.52228599973023,b,1,0.4697267999872565,None,,,,,0002,001,2025-08-26_16h21.15.904,Stroop Task Data,2024.2.4,60.04321908869413,2025-08-26 16h25.08.223446 +0530,
RED,red,C,r,117,1,29,r,1,0.3790941000916064,None,29,1,117,0,170.537541099824,,,,,,,,,170.52324400004,170.537541099824,171.03714039968327,171.03714039968327,171.03714039968327,171.42141570011154,r,1,0.3790941000916064,None,,,,,0002,001,2025-08-26_16h21.15.904,Stroop Task Data,2024.2.4,60.04321908869413,2025-08-26 16h25.08.223446 +0530,
BLUE,blue,C,b,118,2,29,b,1,0.4318070998415351,None,29,2,118,3,171.43659800011665,,,,,,,,,171.42637120001018,171.43659800011665,171.9361290000379,171.9361290000379,171.9361290000379,172.3711097999476,b,1,0.4318070998415351,None,,,,,0002,001,2025-08-26_16h21.15.904,Stroop Task Data,2024.2.4,60.04321908869413,2025-08-26 16h25.08.223446 +0530,
BLUE,red,I,r,119,3,29,r,1,0.5110213998705149,None,29,3,119,2,172.38624639995396,,,,,,,,,172.37197839980945,172.38624639995396,172.88532269978896,172.88532269978896,172.88532269978896,173.40295029990375,r,1,0.5110213998705149,None,,,,,0002,001,2025-08-26_16h21.15.904,Stroop Task Data,2024.2.4,60.04321908869413,2025-08-26 16h25.08.223446 +0530,
,,,,,,,,,,,,,,,,,,,,,,,,,,,,,,,,,,173.40316849993542,173.41820870013908,174.41736570000648,174.40152479987592,0002,001,2025-08-26_16h21.15.904,Stroop Task Data,2024.2.4,60.04321908869413,2025-08-26 16h25.08.223446 +0530,
